intro_resp.keys,intro_resp.rt,EmbInstruct_cont.keys,EmbInstruct_cont.rt,embResp.keys,embResp.corr,embResp.rt,Emb_practice.thisRepN,Emb_practice.thisTrialN,Emb_practice.thisN,Emb_practice.thisIndex,Emb_practice.ran,condition,Word,Cresp,participant,session,date,expName,psychopyVersion,OS,frameRate,key_resp.keys,key_resp.rt,key_resp_2.keys,Embody.thisRepN,Embody.thisTrialN,Embody.thisN,Embody.thisIndex,Embody.ran,item_nr,match_null,Socialness,Dom_PoS_SUBTLEX,Percentage_dom_PoS,AoA_Rating,Concreteness,Valence,LgSUBTLWF,Length,key_resp_2.rt,task_cont.keys,task_cont.rt
space,3.5486,space,47.2117,k,1,0.5528,0,0,0,6,1,A2_B1,drama,k,R_z6dwCbGgm0VrUml,MainNoun,2022-09-21_12h54.48.858,SCT,2021.2.3,Win32,59.61607249,,,,,,,,,,,,,,,,,,,,,
,,,,,1,,0,1,1,5,1,A1_B2,solve,,R_z6dwCbGgm0VrUml,MainNoun,2022-09-21_12h54.48.858,SCT,2021.2.3,Win32,59.61607249,,,,,,,,,,,,,,,,,,,,,
,,,,k,1,0.4869,0,2,2,4,1,A1_B1,jungle,k,R_z6dwCbGgm0VrUml,MainNoun,2022-09-21_12h54.48.858,SCT,2021.2.3,Win32,59.61607249,,,,,,,,,,,,,,,,,,,,,
,,,,k,1,0.5206,0,3,3,0,1,A1_B1,obstacle,k,R_z6dwCbGgm0VrUml,MainNoun,2022-09-21_12h54.48.858,SCT,2021.2.3,Win32,59.61607249,,,,,,,,,,,,,,,,,,,,,
,,,,k,0,0.5566,0,4,4,7,1,A2_B2,convince,,R_z6dwCbGgm0VrUml,MainNoun,2022-09-21_12h54.48.858,SCT,2021.2.3,Win32,59.61607249,,,,,,,,,,,,,,,,,,,,,
,,,,,1,,0,5,5,3,1,A2_B2,adopt,,R_z6dwCbGgm0VrUml,MainNoun,2022-09-21_12h54.48.858,SCT,2021.2.3,Win32,59.61607249,,,,,,,,,,,,,,,,,,,,,
,,,,,1,,0,6,6,1,1,A1_B2,reduce,,R_z6dwCbGgm0VrUml,MainNoun,2022-09-21_12h54.48.858,SCT,2021.2.3,Win32,59.61607249,,,,,,,,,,,,,,,,,,,,,
,,,,k,1,0.5261,0,7,7,2,1,A2_B1,heartbreak,k,R_z6dwCbGgm0VrUml,MainNoun,2022-09-21_12h54.48.858,SCT,2021.2.3,Win32,59.61607249,,,,,,,,,,,,,,,,,,,,,
,,,,,1,,,,,,,A1_B2,replicate,,R_z6dwCbGgm0VrUml,MainNoun,2022-09-21_12h54.48.858,SCT,2021.2.3,Win32,59.61607249,space,3.9647,,0,0,0,77,1,24,A1_B1,2.739130435,Verb,1,11.26,3.33,4.95,1.58,9,,,
,,,,k,1,0.6696,,,,,,A2_B1,nobility,k,R_z6dwCbGgm0VrUml,MainNoun,2022-09-21_12h54.48.858,SCT,2021.2.3,Win32,59.61607249,,,,0,1,1,142,1,44,A2_B1,5.708333333,Noun,1,11.39,2.81,5.83,1.929,8,,,
,,,,k,1,0.6138,,,,,,A2_B1,diplomacy,k,R_z6dwCbGgm0VrUml,MainNoun,2022-09-21_12h54.48.858,SCT,2021.2.3,Win32,59.61607249,,,,0,2,2,74,1,23,A1_B1,5.772727273,Noun,1,10.89,2.04,5.53,1.914,9,,,
,,,,,1,,,,,,,A1_B2,sterilize,,R_z6dwCbGgm0VrUml,MainNoun,2022-09-21_12h54.48.858,SCT,2021.2.3,Win32,59.61607249,,,,0,3,3,141,1,44,A2_B1,2.954545455,Verb,1,11.68,2.97,5.59,1.398,9,,,
,,,,,1,,,,,,,A1_B2,cleanse,,R_z6dwCbGgm0VrUml,MainNoun,2022-09-21_12h54.48.858,SCT,2021.2.3,Win32,59.61607249,,,,0,4,4,253,1,5,A2_B1,2.75,Verb,1,8.11,3.31,6.65,1.875,7,,,
,,,,,1,,,,,,,A1_B2,refuel,,R_z6dwCbGgm0VrUml,MainNoun,2022-09-21_12h54.48.858,SCT,2021.2.3,Win32,59.61607249,,,,0,5,5,81,1,26,A1_B2,1.954545455,Verb,1,10.22,3.53,5.5,1.643,6,,,
,,,,k,1,1.0147,,,,,,A1_B1,vantage,k,R_z6dwCbGgm0VrUml,MainNoun,2022-09-21_12h54.48.858,SCT,2021.2.3,Win32,59.61607249,,,,0,6,6,260,1,7,A1_B1,2.65,Noun,1,12.1,1.93,5.95,1.602,7,,,
,,,,k,1,0.6271,,,,,,A1_B1,agility,k,R_z6dwCbGgm0VrUml,MainNoun,2022-09-21_12h54.48.858,SCT,2021.2.3,Win32,59.61607249,,,,0,7,7,48,1,17,A2_B1,2.869565217,Noun,1,10.06,2.38,6.55,1.38,7,,,
,,,,,1,,,,,,,A1_B2,extend,,R_z6dwCbGgm0VrUml,MainNoun,2022-09-21_12h54.48.858,SCT,2021.2.3,Win32,59.61607249,,,,0,8,8,169,1,53,A1_B1,2.909090909,Verb,1,9.89,2.93,5.86,2.516,6,,,
,,,,,1,,,,,,,A1_B2,visualize,,R_z6dwCbGgm0VrUml,MainNoun,2022-09-21_12h54.48.858,SCT,2021.2.3,Win32,59.61607249,,,,0,9,9,49,1,17,A2_B1,2.458333333,Verb,1,9.88,2.45,6.58,1.949,9,,,
,,,,k,1,0.6829,,,,,,A1_B1,outage,k,R_z6dwCbGgm0VrUml,MainNoun,2022-09-21_12h54.48.858,SCT,2021.2.3,Win32,59.61607249,,,,0,10,10,204,1,63,A2_B2,2.95,Noun,1,9.06,2.83,3.86,1.342,6,,,
,,,,,1,,,,,,,A1_B2,finalize,,R_z6dwCbGgm0VrUml,MainNoun,2022-09-21_12h54.48.858,SCT,2021.2.3,Win32,59.61607249,,,,0,11,11,197,1,61,A1_B2,2.545454545,Verb,1,10.3,2.14,5.6,1.431,8,,,
,,,,k,1,0.78,,,,,,A2_B1,reviewer,k,R_z6dwCbGgm0VrUml,MainNoun,2022-09-21_12h54.48.858,SCT,2021.2.3,Win32,59.61607249,,,,0,12,12,10,1,4,A1_B2,5.272727273,Noun,1,9.68,3.67,5.16,1.431,8,,,
,,,,,1,,,,,,,A2_B2,propose,,R_z6dwCbGgm0VrUml,MainNoun,2022-09-21_12h54.48.858,SCT,2021.2.3,Win32,59.61607249,,,,0,13,13,219,1,67,A2_B1,5.541666667,Verb,1,9,2.19,6.26,2.822,7,,,
,,,,k,1,0.6559,,,,,,A2_B1,patriot,k,R_z6dwCbGgm0VrUml,MainNoun,2022-09-21_12h54.48.858,SCT,2021.2.3,Win32,59.61607249,,,,0,14,14,82,1,26,A1_B2,5.695652174,Noun,0.97,10.14,3.36,5.8,2.127,7,,,
,,,,k,1,0.7603,,,,,,A1_B1,jiffy,k,R_z6dwCbGgm0VrUml,MainNoun,2022-09-21_12h54.48.858,SCT,2021.2.3,Win32,59.61607249,,,,0,15,15,160,1,50,A1_B2,2.722222222,Noun,1,9.33,2.33,6.09,1.909,5,,,
,,,,k,1,0.5833,,,,,,A2_B1,ancestry,k,R_z6dwCbGgm0VrUml,MainNoun,2022-09-21_12h54.48.858,SCT,2021.2.3,Win32,59.61607249,,,,0,16,16,102,1,33,A1_B1,5.142857143,Noun,1,10.11,2.83,6.29,1.398,8,,,
,,,,,1,,,,,,,A1_B2,renew,,R_z6dwCbGgm0VrUml,MainNoun,2022-09-21_12h54.48.858,SCT,2021.2.3,Win32,59.61607249,,,,0,17,17,161,1,50,A1_B2,2.958333333,Verb,1,10.06,2.07,6,2.049,5,,,
,,,,k,1,0.6542,,,,,,A2_B1,mankind,k,R_z6dwCbGgm0VrUml,MainNoun,2022-09-21_12h54.48.858,SCT,2021.2.3,Win32,59.61607249,,,,0,18,18,222,1,68,A2_B2,6.5,Noun,1,8.89,2.97,6.59,2.651,7,,,
,,,,,1,,,,,,,A2_B2,pray,,R_z6dwCbGgm0VrUml,MainNoun,2022-09-21_12h54.48.858,SCT,2021.2.3,Win32,59.61607249,,,,0,19,19,267,1,8,A1_B2,5.045454545,Verb,0.96,5.79,3.21,6.57,3.267,4,,,
,,,,k,1,0.6562,,,,,,A2_B1,temptress,k,R_z6dwCbGgm0VrUml,MainNoun,2022-09-21_12h54.48.858,SCT,2021.2.3,Win32,59.61607249,,,,0,20,20,122,1,39,A2_B2,5.086956522,Noun,0.91,12.2,3.08,4.68,1.38,9,,,
,,,,,1,,,,,,,A1_B2,accelerate,,R_z6dwCbGgm0VrUml,MainNoun,2022-09-21_12h54.48.858,SCT,2021.2.3,Win32,59.61607249,,,,0,21,21,189,1,59,A1_B1,2.25,Verb,1,10.74,3.48,6.1,1.819,10,,,
,,,,,1,,,,,,,A1_B2,straddle,,R_z6dwCbGgm0VrUml,MainNoun,2022-09-21_12h54.48.858,SCT,2021.2.3,Win32,59.61607249,,,,0,22,22,133,1,42,A1_B1,2.714285714,Verb,1,9.11,3.74,5.62,1.431,8,,,
,,,,,1,,,,,,,A2_B2,participate,,R_z6dwCbGgm0VrUml,MainNoun,2022-09-21_12h54.48.858,SCT,2021.2.3,Win32,59.61607249,,,,0,23,23,239,1,1,A2_B1,5.869565217,Verb,1,7.05,2.59,5.5,2.352,11,,,
,,,,,1,,,,,,,A2_B2,impress,,R_z6dwCbGgm0VrUml,MainNoun,2022-09-21_12h54.48.858,SCT,2021.2.3,Win32,59.61607249,,,,0,24,24,63,1,20,A2_B1,5.333333333,Verb,1,10.17,2.07,6.25,2.717,7,,,
,,,,,1,,,,,,,A2_B2,contribute,,R_z6dwCbGgm0VrUml,MainNoun,2022-09-21_12h54.48.858,SCT,2021.2.3,Win32,59.61607249,,,,0,25,25,183,1,57,A2_B1,5.333333333,Verb,1,9.37,2.13,6.15,2.29,10,,,
,,,,k,1,0.9328,,,,,,A1_B1,stealth,k,R_z6dwCbGgm0VrUml,MainNoun,2022-09-21_12h54.48.858,SCT,2021.2.3,Win32,59.61607249,,,,0,26,26,116,1,37,A2_B1,2.85,Noun,1,10.58,2.76,5.45,2.155,7,,,
,,,,,1,,,,,,,A1_B2,conclude,,R_z6dwCbGgm0VrUml,MainNoun,2022-09-21_12h54.48.858,SCT,2021.2.3,Win32,59.61607249,,,,0,27,27,165,1,52,A1_B1,2.681818182,Verb,1,10.48,1.78,4.81,2.107,8,,,
,,,,,1,,,,,,,A1_B2,deteriorate,,R_z6dwCbGgm0VrUml,MainNoun,2022-09-21_12h54.48.858,SCT,2021.2.3,Win32,59.61607249,,,,0,28,28,173,1,54,A2_B1,2.428571429,Verb,1,11.78,3,3.64,1.447,11,,,
,,,,,1,,,,,,,A1_B2,untie,,R_z6dwCbGgm0VrUml,MainNoun,2022-09-21_12h54.48.858,SCT,2021.2.3,Win32,59.61607249,,,,0,29,29,229,1,70,A2_B1,2.476190476,Verb,1,4.84,3.89,4.95,2.423,5,,,
,,,,,1,,,,,,,A2_B2,cherish,,R_z6dwCbGgm0VrUml,MainNoun,2022-09-21_12h54.48.858,SCT,2021.2.3,Win32,59.61607249,,,,0,30,30,59,1,19,A1_B2,5.473684211,Verb,1,8.9,1.73,6.75,2.358,7,,,
,,,,,1,,,,,,,A1_B2,suffice,,R_z6dwCbGgm0VrUml,MainNoun,2022-09-21_12h54.48.858,SCT,2021.2.3,Win32,59.61607249,,,,0,31,31,261,1,7,A1_B1,2.375,Verb,1,12.26,1.72,5.52,1.929,7,,,
,,,,k,0,1.7765,,,,,,A2_B2,assist,,R_z6dwCbGgm0VrUml,MainNoun,2022-09-21_12h54.48.858,SCT,2021.2.3,Win32,59.61607249,,,,0,32,32,139,1,43,A1_B2,5.958333333,Verb,0.93,8.75,2.52,5.95,2.603,6,,,
,,,,,1,,,,,,,A2_B2,mingle,,R_z6dwCbGgm0VrUml,MainNoun,2022-09-21_12h54.48.858,SCT,2021.2.3,Win32,59.61607249,,,,0,33,33,83,1,26,A1_B2,5.391304348,Verb,1,10.29,3.17,5.21,2.14,6,,,
,,,,,1,,,,,,,A2_B2,authorize,,R_z6dwCbGgm0VrUml,MainNoun,2022-09-21_12h54.48.858,SCT,2021.2.3,Win32,59.61607249,,,,0,34,34,23,1,7,A2_B1,5.086956522,Verb,1,9.84,2.22,5.37,2.025,9,,,
,,,,,1,,,,,,,A1_B2,expire,,R_z6dwCbGgm0VrUml,MainNoun,2022-09-21_12h54.48.858,SCT,2021.2.3,Win32,59.61607249,,,,0,35,35,205,1,63,A2_B2,2,Verb,1,7.68,2.73,3.16,1.672,6,,,
,,,,k,1,1.0384,,,,,,A1_B1,carpentry,k,R_z6dwCbGgm0VrUml,MainNoun,2022-09-21_12h54.48.858,SCT,2021.2.3,Win32,59.61607249,,,,0,36,36,8,1,4,A1_B2,2.857142857,Noun,1,9.83,3.48,4.87,1.38,9,,,
,,,,,1,,,,,,,A1_B2,soften,,R_z6dwCbGgm0VrUml,MainNoun,2022-09-21_12h54.48.858,SCT,2021.2.3,Win32,59.61607249,,,,0,37,37,221,1,68,A2_B2,2.583333333,Verb,1,7.37,2.57,6.57,1.887,6,,,
,,,,,1,,,,,,,A2_B2,endorse,,R_z6dwCbGgm0VrUml,MainNoun,2022-09-21_12h54.48.858,SCT,2021.2.3,Win32,59.61607249,,,,0,38,38,243,1,2,A2_B2,5.416666667,Verb,1,12.06,2.41,5.2,1.949,7,,,
,,,,,1,,,,,,,A2_B2,administer,,R_z6dwCbGgm0VrUml,MainNoun,2022-09-21_12h54.48.858,SCT,2021.2.3,Win32,59.61607249,,,,0,39,39,215,1,66,A1_B1,5,Verb,1,9.42,2.53,4.4,1.935,10,,,
,,,,k,1,0.7045,,,,,,A2_B1,manhood,k,R_z6dwCbGgm0VrUml,MainNoun,2022-09-21_12h54.48.858,SCT,2021.2.3,Win32,59.61607249,,,,0,40,40,178,1,55,A2_B1,5.25,Noun,1,12.95,2.59,6.5,2.167,7,,,
,,,,k,1,0.7143,,,,,,A1_B1,variation,k,R_z6dwCbGgm0VrUml,MainNoun,2022-09-21_12h54.48.858,SCT,2021.2.3,Win32,59.61607249,,,,0,41,41,20,1,7,A2_B1,2.090909091,Noun,1,10.11,2.46,5.53,1.813,9,,,
,,,,k,1,0.5251,,,,,,A2_B1,speech,k,R_z6dwCbGgm0VrUml,MainNoun,2022-09-21_12h54.48.858,SCT,2021.2.3,Win32,59.61607249,,,,0,42,42,266,1,8,A1_B2,6.08,Noun,1,6.22,3.37,5.62,3.288,6,,,
,,,,,1,,,,,,,A1_B2,install,,R_z6dwCbGgm0VrUml,MainNoun,2022-09-21_12h54.48.858,SCT,2021.2.3,Win32,59.61607249,,,,0,43,43,101,1,33,A1_B1,2.571428571,Verb,1,10.14,3.19,5.95,2.143,7,,,
,,,,,1,,,,,,,A2_B2,compete,,R_z6dwCbGgm0VrUml,MainNoun,2022-09-21_12h54.48.858,SCT,2021.2.3,Win32,59.61607249,,,,0,44,44,251,1,4,A1_B1,5.428571429,Verb,1,6.94,2.57,5.35,2.636,7,,,
,,,,k,1,0.6687,,,,,,A2_B1,foreigner,k,R_z6dwCbGgm0VrUml,MainNoun,2022-09-21_12h54.48.858,SCT,2021.2.3,Win32,59.61607249,,,,0,45,45,78,1,24,A1_B1,5.25,Noun,1,10.39,3.32,4.68,2.179,9,,,
,,,,k,1,0.6508,,,,,,A2_B1,dialect,k,R_z6dwCbGgm0VrUml,MainNoun,2022-09-21_12h54.48.858,SCT,2021.2.3,Win32,59.61607249,,,,0,46,46,154,1,47,A2_B1,5.523809524,Noun,1,11.5,2.67,6,1.839,7,,,
,,,,k,1,0.6297,,,,,,A2_B1,flirtation,k,R_z6dwCbGgm0VrUml,MainNoun,2022-09-21_12h54.48.858,SCT,2021.2.3,Win32,59.61607249,,,,0,47,47,22,1,7,A2_B1,5.391304348,Noun,1,10.53,2.19,5.78,1.568,10,,,
,,,,k,1,0.7897,,,,,,A1_B1,dioxide,k,R_z6dwCbGgm0VrUml,MainNoun,2022-09-21_12h54.48.858,SCT,2021.2.3,Win32,59.61607249,,,,0,48,48,12,1,5,A2_B1,1.363636364,Noun,1,11.4,2.81,4.58,1.724,7,,,
,,,,k,0,2.8982,,,,,,A1_B2,tremble,,R_z6dwCbGgm0VrUml,MainNoun,2022-09-21_12h54.48.858,SCT,2021.2.3,Win32,59.61607249,,,,0,49,49,105,1,34,A1_B2,2.227272727,Verb,1,8.89,3.61,3.18,2.061,7,,,
,,,,k,1,0.5573,,,,,,A1_B1,figment,k,R_z6dwCbGgm0VrUml,MainNoun,2022-09-21_12h54.48.858,SCT,2021.2.3,Win32,59.61607249,,,,0,50,50,256,1,6,A1_B1,2.333333333,Noun,1,9.63,2.04,5,1.748,7,,,
,,,,k,1,0.7202,,,,,,A1_B1,anomaly,k,R_z6dwCbGgm0VrUml,MainNoun,2022-09-21_12h54.48.858,SCT,2021.2.3,Win32,59.61607249,,,,0,51,51,156,1,49,A2_B2,2.111111111,Noun,1,12.44,1.79,4.84,1.806,7,,,
,,,,,1,,,,,,,A2_B2,connect,,R_z6dwCbGgm0VrUml,MainNoun,2022-09-21_12h54.48.858,SCT,2021.2.3,Win32,59.61607249,,,,0,52,52,255,1,5,A2_B1,5.708333333,Verb,1,7.58,2.88,6.61,2.693,7,,,
,,,,k,1,0.5945,,,,,,A1_B1,time,k,R_z6dwCbGgm0VrUml,MainNoun,2022-09-21_12h54.48.858,SCT,2021.2.3,Win32,59.61607249,,,,0,53,53,200,1,62,A1_B1,2.88,Noun,0.99,5.16,3.07,5.6,5,4,,,
,,,,k,1,0.646,,,,,,A1_B1,drawback,k,R_z6dwCbGgm0VrUml,MainNoun,2022-09-21_12h54.48.858,SCT,2021.2.3,Win32,59.61607249,,,,0,54,54,128,1,41,A1_B1,2.708333333,Noun,1,9.63,2.52,4.38,1.518,8,,,
,,,,,1,,,,,,,A1_B2,maximize,,R_z6dwCbGgm0VrUml,MainNoun,2022-09-21_12h54.48.858,SCT,2021.2.3,Win32,59.61607249,,,,0,55,55,245,1,3,A2_B1,2.916666667,Verb,1,10.58,1.79,6.2,1.663,8,,,
,,,,,1,,,,,,,A1_B2,deduct,,R_z6dwCbGgm0VrUml,MainNoun,2022-09-21_12h54.48.858,SCT,2021.2.3,Win32,59.61607249,,,,0,56,56,33,1,10,A2_B2,2.304347826,Verb,1,10.84,2.31,4.24,1.748,6,,,
,,,,,1,,,,,,,A2_B2,supervise,,R_z6dwCbGgm0VrUml,MainNoun,2022-09-21_12h54.48.858,SCT,2021.2.3,Win32,59.61607249,,,,0,57,57,99,1,32,A2_B1,5.318181818,Verb,1,11,2.48,5.05,1.996,9,,,
,,,,k,1,0.6069,,,,,,A2_B1,goodwill,k,R_z6dwCbGgm0VrUml,MainNoun,2022-09-21_12h54.48.858,SCT,2021.2.3,Win32,59.61607249,,,,0,58,58,58,1,19,A1_B2,5.826086957,Noun,1,8.79,2.54,6.47,2.225,8,,,
,,,,,1,,,,,,,A2_B2,reconcile,,R_z6dwCbGgm0VrUml,MainNoun,2022-09-21_12h54.48.858,SCT,2021.2.3,Win32,59.61607249,,,,0,59,59,51,1,17,A2_B1,5.55,Verb,1,10.47,1.79,6.84,1.771,9,,,
,,,,,1,,,,,,,A2_B2,advise,,R_z6dwCbGgm0VrUml,MainNoun,2022-09-21_12h54.48.858,SCT,2021.2.3,Win32,59.61607249,,,,0,60,60,171,1,53,A1_B1,5.590909091,Verb,1,8.89,2.03,5.44,2.795,6,,,
,,,,k,0,0.603,,,,,,A1_B2,retain,,R_z6dwCbGgm0VrUml,MainNoun,2022-09-21_12h54.48.858,SCT,2021.2.3,Win32,59.61607249,,,,0,61,61,41,1,14,A1_B2,2.608695652,Verb,1,11.32,2.32,6.25,2.086,6,,,
,,,,,1,,,,,,,A1_B2,decompose,,R_z6dwCbGgm0VrUml,MainNoun,2022-09-21_12h54.48.858,SCT,2021.2.3,Win32,59.61607249,,,,0,62,62,113,1,36,A1_B2,1.826086957,Verb,1,10.48,3,2.42,1.398,9,,,
,,,,k,1,0.6821,,,,,,A2_B1,career,k,R_z6dwCbGgm0VrUml,MainNoun,2022-09-21_12h54.48.858,SCT,2021.2.3,Win32,59.61607249,,,,0,63,63,170,1,53,A1_B1,5.24,Noun,0.99,9.95,2.54,6.11,3.363,6,,,
,,,,,1,,,,,,,A1_B2,adjust,,R_z6dwCbGgm0VrUml,MainNoun,2022-09-21_12h54.48.858,SCT,2021.2.3,Win32,59.61607249,,,,0,64,64,137,1,43,A1_B2,2.608695652,Verb,1,8.43,2.93,5.76,2.459,6,,,
,,,,,1,,,,,,,A2_B2,dignify,,R_z6dwCbGgm0VrUml,MainNoun,2022-09-21_12h54.48.858,SCT,2021.2.3,Win32,59.61607249,,,,0,65,65,199,1,61,A1_B2,5.173913043,Verb,1,10.47,1.71,5.68,1.491,7,,,
,,,,k,1,1.1965,,,,,,A1_B1,metaphor,k,R_z6dwCbGgm0VrUml,MainNoun,2022-09-21_12h54.48.858,SCT,2021.2.3,Win32,59.61607249,,,,0,66,66,244,1,3,A2_B1,2.652173913,Noun,1,11.59,1.94,6.11,2.299,8,,,
,,,,k,1,0.6362,,,,,,A1_B1,compound,k,R_z6dwCbGgm0VrUml,MainNoun,2022-09-21_12h54.48.858,SCT,2021.2.3,Win32,59.61607249,,,,0,67,67,152,1,47,A2_B1,2.65,Noun,0.91,11.26,3.03,5.62,2.559,8,,,
,,,,,1,,,,,,,A2_B2,implore,,R_z6dwCbGgm0VrUml,MainNoun,2022-09-21_12h54.48.858,SCT,2021.2.3,Win32,59.61607249,,,,0,68,68,159,1,49,A2_B2,5,Verb,1,12.44,1.61,4.47,1.732,7,,,
,,,,k,1,1.0221,,,,,,A1_B1,fraction,k,R_z6dwCbGgm0VrUml,MainNoun,2022-09-21_12h54.48.858,SCT,2021.2.3,Win32,59.61607249,,,,0,69,69,88,1,28,A2_B2,1.916666667,Noun,1,10.06,3.1,5.21,2.021,8,,,
,,,,,1,,,,,,,A1_B2,dissolve,,R_z6dwCbGgm0VrUml,MainNoun,2022-09-21_12h54.48.858,SCT,2021.2.3,Win32,59.61607249,,,,0,70,70,5,1,2,A2_B1,2.208333333,Verb,1,9.2,3.15,5.43,1.982,8,,,
,,,,k,1,0.7136,,,,,,A1_B1,medley,k,R_z6dwCbGgm0VrUml,MainNoun,2022-09-21_12h54.48.858,SCT,2021.2.3,Win32,59.61607249,,,,0,71,71,192,1,60,A2_B1,2.863636364,Noun,0.97,10,2.93,6.6,1.518,6,,,
,,,,k,1,0.5978,,,,,,A1_B1,nightfall,k,R_z6dwCbGgm0VrUml,MainNoun,2022-09-21_12h54.48.858,SCT,2021.2.3,Win32,59.61607249,,,,0,72,72,252,1,5,A2_B1,1.708333333,Noun,1,8.17,3.79,6.63,2.075,9,,,
,,,,,1,,,,,,,A1_B2,classify,,R_z6dwCbGgm0VrUml,MainNoun,2022-09-21_12h54.48.858,SCT,2021.2.3,Win32,59.61607249,,,,0,73,73,69,1,22,A2_B2,2.8,Verb,1,9.65,2.41,5.6,1.518,8,,,
,,,,k,1,0.6495,,,,,,A2_B1,hometown,k,R_z6dwCbGgm0VrUml,MainNoun,2022-09-21_12h54.48.858,SCT,2021.2.3,Win32,59.61607249,,,,0,74,74,254,1,5,A2_B1,5.958333333,Noun,0.99,7.22,3.33,6.8,2.301,8,,,
,,,,k,1,0.8156,,,,,,A2_B1,mutiny,k,R_z6dwCbGgm0VrUml,MainNoun,2022-09-21_12h54.48.858,SCT,2021.2.3,Win32,59.61607249,,,,0,75,75,234,1,71,A1_B1,5.526315789,Noun,1,10.59,2.24,4.2,2.104,6,,,
,,,,k,1,0.9289,,,,,,A2_B1,artistry,k,R_z6dwCbGgm0VrUml,MainNoun,2022-09-21_12h54.48.858,SCT,2021.2.3,Win32,59.61607249,,,,0,76,76,50,1,17,A2_B1,5.181818182,Noun,1,10.58,2,6.91,1.398,8,,,
,,,,k,1,0.7562,,,,,,A1_B1,volume,k,R_z6dwCbGgm0VrUml,MainNoun,2022-09-21_12h54.48.858,SCT,2021.2.3,Win32,59.61607249,,,,0,77,77,84,1,27,A2_B2,2.772727273,Noun,1,6.35,3.07,5.25,2.55,6,,,
,,,,k,1,1.5201,,,,,,A2_B1,tourism,k,R_z6dwCbGgm0VrUml,MainNoun,2022-09-21_12h54.48.858,SCT,2021.2.3,Win32,59.61607249,,,,0,78,78,70,1,22,A2_B2,6.130434783,Noun,1,9.53,3,5.35,1.532,7,,,
,,,,k,1,0.8538,,,,,,A2_B1,exhibition,k,R_z6dwCbGgm0VrUml,MainNoun,2022-09-21_12h54.48.858,SCT,2021.2.3,Win32,59.61607249,,,,0,79,79,66,1,21,A2_B1,5.272727273,Noun,1,11.25,3.52,5.53,2.318,10,,,
,,,,k,1,0.8808,,,,,,A2_B1,heroism,k,R_z6dwCbGgm0VrUml,MainNoun,2022-09-21_12h54.48.858,SCT,2021.2.3,Win32,59.61607249,,,,0,80,80,194,1,60,A2_B1,6.086956522,Noun,1,9.55,2.67,7.05,1.756,7,,,
,,,,,1,,,,,,,A2_B2,liberate,,R_z6dwCbGgm0VrUml,MainNoun,2022-09-21_12h54.48.858,SCT,2021.2.3,Win32,59.61607249,,,,0,81,81,75,1,23,A1_B1,5.217391304,Verb,1,11.75,2.29,5.79,1.778,8,,,
,,,,k,1,0.8134,,,,,,A1_B1,bleeder,k,R_z6dwCbGgm0VrUml,MainNoun,2022-09-21_12h54.48.858,SCT,2021.2.3,Win32,59.61607249,,,,0,82,82,148,1,46,A2_B2,2.8,Noun,1,9.76,3.5,3.29,1.785,7,,,
,,,,k,1,0.8478,,,,,,A1_B1,timing,k,R_z6dwCbGgm0VrUml,MainNoun,2022-09-21_12h54.48.858,SCT,2021.2.3,Win32,59.61607249,,,,0,83,83,136,1,43,A1_B2,2.714285714,Noun,0.96,8.84,2.86,5.67,2.884,6,,,
,,,,k,1,0.7699,,,,,,A2_B1,persuasion,k,R_z6dwCbGgm0VrUml,MainNoun,2022-09-21_12h54.48.858,SCT,2021.2.3,Win32,59.61607249,,,,0,84,84,166,1,52,A1_B1,5.083333333,Noun,1,10.9,1.9,5.67,2.004,10,,,
,,,,k,1,0.6011,,,,,,A1_B1,delusion,k,R_z6dwCbGgm0VrUml,MainNoun,2022-09-21_12h54.48.858,SCT,2021.2.3,Win32,59.61607249,,,,0,85,85,184,1,58,A1_B2,2.695652174,Noun,1,9.95,2.3,3.3,2.143,8,,,
,,,,k,1,0.6579,,,,,,A2_B1,environment,k,R_z6dwCbGgm0VrUml,MainNoun,2022-09-21_12h54.48.858,SCT,2021.2.3,Win32,59.61607249,,,,0,86,86,190,1,59,A1_B1,5.347826087,Noun,1,9.85,3.74,6.7,2.815,11,,,
,,,,,1,,,,,,,A2_B2,befriend,,R_z6dwCbGgm0VrUml,MainNoun,2022-09-21_12h54.48.858,SCT,2021.2.3,Win32,59.61607249,,,,0,87,87,127,1,40,A1_B2,6.608695652,Verb,1,8.5,2.36,7.14,1.362,8,,,
,,,,,1,,,,,,,A1_B2,absorb,,R_z6dwCbGgm0VrUml,MainNoun,2022-09-21_12h54.48.858,SCT,2021.2.3,Win32,59.61607249,,,,0,88,88,29,1,9,A1_B1,2.166666667,Verb,1,8.83,3.11,5.5,2.009,6,,,
,,,,,1,,,,,,,A1_B2,reflect,,R_z6dwCbGgm0VrUml,MainNoun,2022-09-21_12h54.48.858,SCT,2021.2.3,Win32,59.61607249,,,,0,89,89,61,1,20,A2_B1,2.909090909,Verb,1,9.89,2.81,6.1,2.33,7,,,
,,,,k,1,0.7265,,,,,,A2_B1,sinner,k,R_z6dwCbGgm0VrUml,MainNoun,2022-09-21_12h54.48.858,SCT,2021.2.3,Win32,59.61607249,,,,0,90,90,206,1,63,A2_B2,5.818181818,Noun,0.92,7.35,3.07,3.25,2.104,6,,,
,,,,,1,,,,,,,A1_B2,straighten,,R_z6dwCbGgm0VrUml,MainNoun,2022-09-21_12h54.48.858,SCT,2021.2.3,Win32,59.61607249,,,,0,91,91,37,1,12,A1_B2,2,Verb,1,7.63,3.72,6.26,2.757,10,,,
,,,,k,1,0.7574,,,,,,A2_B1,rebellion,k,R_z6dwCbGgm0VrUml,MainNoun,2022-09-21_12h54.48.858,SCT,2021.2.3,Win32,59.61607249,,,,0,92,92,130,1,41,A1_B1,6,Noun,1,10,2.93,4.79,2.117,9,,,
,,,,,1,,,,,,,A1_B2,recreate,,R_z6dwCbGgm0VrUml,MainNoun,2022-09-21_12h54.48.858,SCT,2021.2.3,Win32,59.61607249,,,space,0,93,93,117,1,37,A2_B1,2.894736842,Verb,1,9.21,2.41,6,1.732,8,5.3078,,
,,,,k,1,0.6838,,,,,,A2_B1,morale,k,R_z6dwCbGgm0VrUml,MainNoun,2022-09-21_12h54.48.858,SCT,2021.2.3,Win32,59.61607249,,,,0,94,94,162,1,50,A1_B2,5.608695652,Noun,1,10.62,1.85,5.95,2.324,6,,,
,,,,k,1,0.5406,,,,,,A2_B1,humility,k,R_z6dwCbGgm0VrUml,MainNoun,2022-09-21_12h54.48.858,SCT,2021.2.3,Win32,59.61607249,,,,0,95,95,54,1,18,A2_B2,5.375,Noun,1,10.21,1.75,5.65,2.09,8,,,
,,,,,1,,,,,,,A1_B2,summarize,,R_z6dwCbGgm0VrUml,MainNoun,2022-09-21_12h54.48.858,SCT,2021.2.3,Win32,59.61607249,,,,0,96,96,213,1,66,A1_B1,2.75,Verb,1,10.74,2.32,4.89,1.322,9,,,
,,,,,1,,,,,,,A1_B2,enter,,R_z6dwCbGgm0VrUml,MainNoun,2022-09-21_12h54.48.858,SCT,2021.2.3,Win32,59.61607249,,,,0,97,97,265,1,8,A1_B2,2.739130435,Verb,1,5.67,3.12,6.09,3.181,5,,,
,,,,k,1,0.7998,,,,,,A2_B1,fidelity,k,R_z6dwCbGgm0VrUml,MainNoun,2022-09-21_12h54.48.858,SCT,2021.2.3,Win32,59.61607249,,,,0,98,98,18,1,6,A2_B2,5.75,Noun,1,12.82,1.87,6.7,2.009,8,,,
,,,,,1,,,,,,,A2_B2,govern,,R_z6dwCbGgm0VrUml,MainNoun,2022-09-21_12h54.48.858,SCT,2021.2.3,Win32,59.61607249,,,,0,99,99,259,1,6,A1_B1,6.260869565,Verb,1,9.53,2.21,4.52,1.799,6,,,
,,,,k,1,0.7526,,,,,,A2_B1,uprising,k,R_z6dwCbGgm0VrUml,MainNoun,2022-09-21_12h54.48.858,SCT,2021.2.3,Win32,59.61607249,,,,0,100,100,14,1,5,A2_B1,5.285714286,Noun,1,11.17,2.41,4.33,1.778,8,,,
,,,,k,1,0.7177,,,,,,A2_B1,diversity,k,R_z6dwCbGgm0VrUml,MainNoun,2022-09-21_12h54.48.858,SCT,2021.2.3,Win32,59.61607249,,,,0,101,101,246,1,3,A2_B1,5.875,Noun,1,10.79,2.28,6.14,1.756,9,,,
,,,,k,1,0.5993,,,,,,A1_B1,layer,k,R_z6dwCbGgm0VrUml,MainNoun,2022-09-21_12h54.48.858,SCT,2021.2.3,Win32,59.61607249,,,,0,102,102,28,1,9,A1_B1,2.095238095,Noun,0.97,8.28,3.52,5.2,2.279,5,,,
,,,,k,1,0.5711,,,,,,A1_B1,foresight,k,R_z6dwCbGgm0VrUml,MainNoun,2022-09-21_12h54.48.858,SCT,2021.2.3,Win32,59.61607249,,,,0,103,103,72,1,23,A1_B1,2.65,Noun,1,10.78,1.79,5.79,1.591,9,,,
,,,,k,1,0.6177,,,,,,A1_B1,wrapper,k,R_z6dwCbGgm0VrUml,MainNoun,2022-09-21_12h54.48.858,SCT,2021.2.3,Win32,59.61607249,,,,0,104,104,228,1,70,A2_B1,2.045454545,Noun,1,6.11,4.39,4.79,1.935,7,,,
,,,,k,1,0.5713,,,,,,A2_B1,privilege,k,R_z6dwCbGgm0VrUml,MainNoun,2022-09-21_12h54.48.858,SCT,2021.2.3,Win32,59.61607249,,,,0,105,105,182,1,57,A2_B1,5.12,Noun,1,9.24,1.93,5.81,2.735,9,,,
,,,,k,0,1.1836,,,,,,A2_B2,tell,,R_z6dwCbGgm0VrUml,MainNoun,2022-09-21_12h54.48.858,SCT,2021.2.3,Win32,59.61607249,,,,0,106,106,203,1,62,A1_B1,5.238095238,Verb,1,4.26,2.9,5.27,4.944,4,,,
,,,,k,1,1.1138,,,,,,A1_B1,summary,k,R_z6dwCbGgm0VrUml,MainNoun,2022-09-21_12h54.48.858,SCT,2021.2.3,Win32,59.61607249,,,,0,107,107,224,1,69,A1_B2,2.523809524,Noun,1,8,3.03,5.05,1.935,7,,,
,,,,k,1,0.6803,,,,,,A2_B1,community,k,R_z6dwCbGgm0VrUml,MainNoun,2022-09-21_12h54.48.858,SCT,2021.2.3,Win32,59.61607249,,,,0,108,108,38,1,12,A1_B2,6.458333333,Noun,1,7.28,3.52,6.09,3.172,9,,,
,,,,k,1,0.5835,,,,,,A1_B1,array,k,R_z6dwCbGgm0VrUml,MainNoun,2022-09-21_12h54.48.858,SCT,2021.2.3,Win32,59.61607249,,,,0,109,109,40,1,14,A1_B2,2.363636364,Noun,1,10.79,2.54,5.9,2.037,5,,,
,,,,k,1,0.5922,,,,,,A2_B1,presenter,k,R_z6dwCbGgm0VrUml,MainNoun,2022-09-21_12h54.48.858,SCT,2021.2.3,Win32,59.61607249,,,,0,110,110,134,1,42,A1_B1,5.238095238,Noun,1,8.9,3.96,5.71,1.322,9,,,
,,,,k,1,0.7805,,,,,,A2_B1,feedback,k,R_z6dwCbGgm0VrUml,MainNoun,2022-09-21_12h54.48.858,SCT,2021.2.3,Win32,59.61607249,,,,0,111,111,62,1,20,A2_B1,5.545454545,Noun,1,10.7,2.48,5.91,2.149,8,,,
,,,,k,1,1.2075,,,,,,A1_B1,size,k,R_z6dwCbGgm0VrUml,MainNoun,2022-09-21_12h54.48.858,SCT,2021.2.3,Win32,59.61607249,,,,0,112,112,264,1,8,A1_B2,2.3,Noun,0.99,4.84,3.13,5.61,3.372,4,,,
,,,,,1,,,,,,,A1_B2,discontinue,,R_z6dwCbGgm0VrUml,MainNoun,2022-09-21_12h54.48.858,SCT,2021.2.3,Win32,59.61607249,,,,0,113,113,121,1,39,A2_B2,2.227272727,Verb,1,11.63,2.5,3.94,1.544,11,,,
,,,,k,1,0.7813,,,,,,A2_B1,openness,k,R_z6dwCbGgm0VrUml,MainNoun,2022-09-21_12h54.48.858,SCT,2021.2.3,Win32,59.61607249,,,,0,114,114,126,1,40,A1_B2,5.090909091,Noun,1,8.68,1.9,6.52,1.322,8,,,
,,,,k,1,0.5973,,,,,,A2_B1,solitude,k,R_z6dwCbGgm0VrUml,MainNoun,2022-09-21_12h54.48.858,SCT,2021.2.3,Win32,59.61607249,,,,0,115,115,158,1,49,A2_B2,5,Noun,0.97,12,2.07,4.76,2.013,8,,,
,,,,,1,,,,,,,A2_B2,engage,,R_z6dwCbGgm0VrUml,MainNoun,2022-09-21_12h54.48.858,SCT,2021.2.3,Win32,59.61607249,,,,0,116,116,43,1,14,A1_B2,5.1,Verb,1,10.42,2.07,6.6,2.498,6,,,
,,,,,1,,,,,,,A2_B2,infiltrate,,R_z6dwCbGgm0VrUml,MainNoun,2022-09-21_12h54.48.858,SCT,2021.2.3,Win32,59.61607249,,,,0,117,117,123,1,39,A2_B2,5,Verb,1,12,2.71,4.41,1.935,10,,,
,,,,k,1,0.6433,,,,,,A1_B1,allergy,k,R_z6dwCbGgm0VrUml,MainNoun,2022-09-21_12h54.48.858,SCT,2021.2.3,Win32,59.61607249,,,,0,118,118,104,1,34,A1_B2,2.714285714,Noun,1,8.11,3.68,2.9,1.94,7,,,
,,,,k,1,0.5982,,,,,,A2_B1,savior,k,R_z6dwCbGgm0VrUml,MainNoun,2022-09-21_12h54.48.858,SCT,2021.2.3,Win32,59.61607249,,,,0,119,119,46,1,16,A1_B2,5.565217391,Noun,0.88,6.68,3.04,6.59,2.24,6,,,
,,,,k,1,0.4682,,,,,,A2_B1,talker,k,R_z6dwCbGgm0VrUml,MainNoun,2022-09-21_12h54.48.858,SCT,2021.2.3,Win32,59.61607249,,,,0,120,120,230,1,70,A2_B1,6.05,Noun,1,5.74,4.39,4.55,1.964,6,,,
,,,,k,1,0.6464,,,,,,A1_B1,voucher,k,R_z6dwCbGgm0VrUml,MainNoun,2022-09-21_12h54.48.858,SCT,2021.2.3,Win32,59.61607249,,,,0,121,121,80,1,26,A1_B2,2.4,Noun,1,10.3,3.81,5.67,1.672,7,,,
,,,,,1,,,,,,,A1_B2,radiate,,R_z6dwCbGgm0VrUml,MainNoun,2022-09-21_12h54.48.858,SCT,2021.2.3,Win32,59.61607249,,,,0,122,122,177,1,55,A2_B1,2.619047619,Verb,0.89,12.5,2.93,6.9,1.447,7,,,
,,,,k,1,0.7934,,,,,,A1_B1,fireside,k,R_z6dwCbGgm0VrUml,MainNoun,2022-09-21_12h54.48.858,SCT,2021.2.3,Win32,59.61607249,,,,0,123,123,132,1,42,A1_B1,2.095238095,Noun,1,9.39,3.84,6,1.322,8,,,
,,,,k,1,0.6867,,,,,,A2_B1,bribery,k,R_z6dwCbGgm0VrUml,MainNoun,2022-09-21_12h54.48.858,SCT,2021.2.3,Win32,59.61607249,,,,0,124,124,34,1,10,A2_B2,5.761904762,Noun,1,10.65,2.89,3.59,1.845,7,,,
,,,,k,1,0.5832,,,,,,A1_B1,simplicity,k,R_z6dwCbGgm0VrUml,MainNoun,2022-09-21_12h54.48.858,SCT,2021.2.3,Win32,59.61607249,,,,0,125,125,124,1,40,A1_B2,2.772727273,Noun,1,9.89,1.96,7.05,1.845,10,,,
,,,,k,1,0.7518,,,,,,A2_B1,etiquette,k,R_z6dwCbGgm0VrUml,MainNoun,2022-09-21_12h54.48.858,SCT,2021.2.3,Win32,59.61607249,,,,0,126,126,198,1,61,A1_B2,5.19047619,Noun,1,9.5,2.15,6,1.987,9,,,
,,,,,1,,,,,,,A2_B2,inhabit,,R_z6dwCbGgm0VrUml,MainNoun,2022-09-21_12h54.48.858,SCT,2021.2.3,Win32,59.61607249,,,,0,127,127,143,1,44,A2_B1,5.130434783,Verb,1,12.22,3.21,5.38,1.532,7,,,
,,,,,1,,,,,,,A2_B2,attend,,R_z6dwCbGgm0VrUml,MainNoun,2022-09-21_12h54.48.858,SCT,2021.2.3,Win32,59.61607249,,,,0,128,128,31,1,9,A1_B1,5.76,Verb,1,7.72,3.17,5.4,2.855,6,,,
,,,,,1,,,,,,,A2_B2,dominate,,R_z6dwCbGgm0VrUml,MainNoun,2022-09-21_12h54.48.858,SCT,2021.2.3,Win32,59.61607249,,,,0,129,129,131,1,41,A1_B1,5.826086957,Verb,1,8.89,2.12,4.4,1.982,8,,,
,,,,k,1,0.7026,,,,,,A2_B1,excursion,k,R_z6dwCbGgm0VrUml,MainNoun,2022-09-21_12h54.48.858,SCT,2021.2.3,Win32,59.61607249,,,,0,130,130,6,1,2,A2_B1,5.260869565,Noun,1,10.11,2.93,5.83,1.544,9,,,
,,,,,1,,,,,,,A2_B2,motivate,,R_z6dwCbGgm0VrUml,MainNoun,2022-09-21_12h54.48.858,SCT,2021.2.3,Win32,59.61607249,,,,0,131,131,119,1,37,A2_B1,5.260869565,Verb,1,9.9,2.07,6.05,1.74,8,,,
,,,,,1,,,,,,,A2_B2,confide,,R_z6dwCbGgm0VrUml,MainNoun,2022-09-21_12h54.48.858,SCT,2021.2.3,Win32,59.61607249,,,,0,132,132,263,1,7,A1_B1,5.2,Verb,1,11.22,1.81,6.21,1.991,7,,,
,,,,,1,,,,,,,A2_B2,terrorize,,R_z6dwCbGgm0VrUml,MainNoun,2022-09-21_12h54.48.858,SCT,2021.2.3,Win32,59.61607249,,,,0,133,133,115,1,36,A1_B2,5.363636364,Verb,1,9.72,2.84,2.5,1.431,9,,,
,,,,,1,,,,,,,A2_B2,preach,,R_z6dwCbGgm0VrUml,MainNoun,2022-09-21_12h54.48.858,SCT,2021.2.3,Win32,59.61607249,,,,0,134,134,227,1,69,A1_B2,6.173913043,Verb,1,7.33,3.37,4.15,2.09,6,,,
,,,,k,1,0.6808,,,,,,A1_B1,magnetism,k,R_z6dwCbGgm0VrUml,MainNoun,2022-09-21_12h54.48.858,SCT,2021.2.3,Win32,59.61607249,,,,0,135,135,196,1,61,A1_B2,2.45,Noun,1,10.94,2.54,6,1.699,9,,,
,,,,k,1,0.4936,,,,,,A2_B1,humanity,k,R_z6dwCbGgm0VrUml,MainNoun,2022-09-21_12h54.48.858,SCT,2021.2.3,Win32,59.61607249,,,,0,136,136,146,1,45,A2_B2,6.19047619,Noun,1,9.28,2.36,6.78,2.696,8,,,
,,,,k,1,0.5672,,,,,,A1_B1,dimension,k,R_z6dwCbGgm0VrUml,MainNoun,2022-09-21_12h54.48.858,SCT,2021.2.3,Win32,59.61607249,,,,0,137,137,52,1,18,A2_B2,2.434782609,Noun,1,10.26,2.5,5.24,2.375,9,,,
,,,,k,1,0.6977,,,,,,A2_B1,event,k,R_z6dwCbGgm0VrUml,MainNoun,2022-09-21_12h54.48.858,SCT,2021.2.3,Win32,59.61607249,,,,0,138,138,138,1,43,A1_B2,5.130434783,Noun,1,7.81,2.69,6.21,3.129,5,,,
,,,,k,1,0.6432,,,,,,A1_B1,series,k,R_z6dwCbGgm0VrUml,MainNoun,2022-09-21_12h54.48.858,SCT,2021.2.3,Win32,59.61607249,,,,0,139,139,24,1,8,A2_B1,2.708333333,Noun,1,9.05,2.92,5.23,3.012,6,,,
,,,,k,1,0.6635,,,,,,A2_B1,immigration,k,R_z6dwCbGgm0VrUml,MainNoun,2022-09-21_12h54.48.858,SCT,2021.2.3,Win32,59.61607249,,,,0,140,140,174,1,54,A2_B1,6.090909091,Noun,0.98,12.63,3.03,4,2.111,11,,,
,,,,,1,,,,,,,A1_B2,enhance,,R_z6dwCbGgm0VrUml,MainNoun,2022-09-21_12h54.48.858,SCT,2021.2.3,Win32,59.61607249,,,,0,141,141,193,1,60,A2_B1,2.523809524,Verb,1,9.95,2.21,6.62,2.1,7,,,
,,,,,1,,,,,,,A2_B2,avenge,,R_z6dwCbGgm0VrUml,MainNoun,2022-09-21_12h54.48.858,SCT,2021.2.3,Win32,59.61607249,,,,0,142,142,235,1,71,A1_B1,5.15,Verb,1,10.68,2.07,4.05,2.19,6,,,
,,,,k,1,0.7098,,,,,,A1_B1,shallows,k,R_z6dwCbGgm0VrUml,MainNoun,2022-09-21_12h54.48.858,SCT,2021.2.3,Win32,59.61607249,,,,0,143,143,108,1,35,A1_B2,2.347826087,Noun,1,11.39,3.33,5.37,1.322,8,,,
,,,,k,1,0.6248,,,,,,A1_B1,fluke,k,R_z6dwCbGgm0VrUml,MainNoun,2022-09-21_12h54.48.858,SCT,2021.2.3,Win32,59.61607249,,,,0,144,144,232,1,71,A1_B1,2.526315789,Noun,1,10.1,2.34,4.3,1.954,5,,,
,,,,,1,,,,,,,A2_B2,accompany,,R_z6dwCbGgm0VrUml,MainNoun,2022-09-21_12h54.48.858,SCT,2021.2.3,Win32,59.61607249,,,,0,145,145,67,1,21,A2_B1,5.782608696,Verb,1,10.75,3.07,5.47,2.386,9,,,
,,,,,1,,,,,,,A1_B2,activate,,R_z6dwCbGgm0VrUml,MainNoun,2022-09-21_12h54.48.858,SCT,2021.2.3,Win32,59.61607249,,,,0,146,146,153,1,47,A2_B1,2.7,Verb,1,11.11,2.97,5.7,2.378,8,,,
,,,,k,1,0.8318,,,,,,A2_B1,warfare,k,R_z6dwCbGgm0VrUml,MainNoun,2022-09-21_12h54.48.858,SCT,2021.2.3,Win32,59.61607249,,,,0,147,147,150,1,46,A2_B2,5.571428571,Noun,1,8.95,3.03,3.14,2.179,7,,,
,,,,k,1,0.6412,,,,,,A2_B1,teamwork,k,R_z6dwCbGgm0VrUml,MainNoun,2022-09-21_12h54.48.858,SCT,2021.2.3,Win32,59.61607249,,,,0,148,148,210,1,65,A2_B1,6.72,Noun,1,7.8,2.37,6.26,2.013,8,,,
,,,,,1,,,,,,,A1_B2,bode,,R_z6dwCbGgm0VrUml,MainNoun,2022-09-21_12h54.48.858,SCT,2021.2.3,Win32,59.61607249,,,,0,149,149,233,1,71,A1_B1,2.238095238,Verb,0.88,10.93,1.88,4.71,1.398,4,,,
,,,,k,1,0.5491,,,,,,A1_B1,gravity,k,R_z6dwCbGgm0VrUml,MainNoun,2022-09-21_12h54.48.858,SCT,2021.2.3,Win32,59.61607249,,,,0,150,150,208,1,65,A2_B1,2.041666667,Noun,1,8.39,2.86,5.81,2.546,7,,,
,,,,,1,,,,,,,A2_B2,advertise,,R_z6dwCbGgm0VrUml,MainNoun,2022-09-21_12h54.48.858,SCT,2021.2.3,Win32,59.61607249,,,,0,151,151,11,1,4,A1_B2,5.434782609,Verb,1,9.63,2.81,5.16,1.929,9,,,
,,,,,1,,,,,,,A2_B2,communicate,,R_z6dwCbGgm0VrUml,MainNoun,2022-09-21_12h54.48.858,SCT,2021.2.3,Win32,59.61607249,,,,0,152,152,39,1,12,A1_B2,6.476190476,Verb,1,7.63,3.43,6.28,2.639,11,,,
,,,,,1,,,,,,,A2_B2,seduce,,R_z6dwCbGgm0VrUml,MainNoun,2022-09-21_12h54.48.858,SCT,2021.2.3,Win32,59.61607249,,,,0,153,153,179,1,55,A2_B1,5.727272727,Verb,0.97,11.95,2.18,6.74,2.248,6,,,
,,,,,1,,,,,,,A2_B2,interact,,R_z6dwCbGgm0VrUml,MainNoun,2022-09-21_12h54.48.858,SCT,2021.2.3,Win32,59.61607249,,,,0,154,154,103,1,33,A1_B1,5.217391304,Verb,1,9.58,2.88,6,1.869,8,,,
,,,,,1,,,,,,,A2_B2,persuade,,R_z6dwCbGgm0VrUml,MainNoun,2022-09-21_12h54.48.858,SCT,2021.2.3,Win32,59.61607249,,,,0,155,155,167,1,52,A1_B1,5.173913043,Verb,1,10.79,2.07,5.67,2.514,8,,,
,,,,k,1,0.7633,,,,,,A1_B1,standstill,k,R_z6dwCbGgm0VrUml,MainNoun,2022-09-21_12h54.48.858,SCT,2021.2.3,Win32,59.61607249,,,,0,156,156,212,1,66,A1_B1,2.863636364,Noun,1,10,2.39,4.74,1.431,10,,,
,,,,,1,,,,,,,A1_B2,lighten,,R_z6dwCbGgm0VrUml,MainNoun,2022-09-21_12h54.48.858,SCT,2021.2.3,Win32,59.61607249,,,,0,157,157,145,1,45,A2_B2,2.636363636,Verb,1,7.95,2.93,6.21,2.48,7,,,
,,,,k,1,1.0565,,,,,,A1_B1,migraine,k,R_z6dwCbGgm0VrUml,MainNoun,2022-09-21_12h54.48.858,SCT,2021.2.3,Win32,59.61607249,,,,0,158,158,112,1,36,A1_B2,2.956521739,Noun,0.93,10,3.2,2.68,1.982,8,,,
,,,,,1,,,,,,,A1_B2,conjure,,R_z6dwCbGgm0VrUml,MainNoun,2022-09-21_12h54.48.858,SCT,2021.2.3,Win32,59.61607249,,,,0,159,159,241,1,2,A2_B2,2.578947368,Verb,1,11.37,2.3,5.05,1.813,7,,,
,,,,k,1,0.6523,,,,,,A1_B1,excavation,k,R_z6dwCbGgm0VrUml,MainNoun,2022-09-21_12h54.48.858,SCT,2021.2.3,Win32,59.61607249,,,,0,160,160,76,1,24,A1_B1,2.565217391,Noun,1,10.89,3.23,4.89,1.518,10,,,
,,,,,1,,,,,,,A2_B2,greet,,R_z6dwCbGgm0VrUml,MainNoun,2022-09-21_12h54.48.858,SCT,2021.2.3,Win32,59.61607249,,,,0,161,161,47,1,16,A1_B2,6.045454545,Verb,1,6.47,2.96,6.25,2.43,5,,,
,,,,k,1,0.7715,,,,,,A2_B1,monogamy,k,R_z6dwCbGgm0VrUml,MainNoun,2022-09-21_12h54.48.858,SCT,2021.2.3,Win32,59.61607249,,,,0,162,162,262,1,7,A1_B1,5.6,Noun,1,13.06,1.7,6.43,1.672,8,,,
,,,,,1,,,,,,,A2_B2,brainwash,,R_z6dwCbGgm0VrUml,MainNoun,2022-09-21_12h54.48.858,SCT,2021.2.3,Win32,59.61607249,,,,0,163,163,187,1,58,A1_B2,5.083333333,Verb,0.91,11.53,2.21,3.11,1.362,9,,,
,,,,k,1,0.7154,,,,,,A2_B1,monarchy,k,R_z6dwCbGgm0VrUml,MainNoun,2022-09-21_12h54.48.858,SCT,2021.2.3,Win32,59.61607249,,,,0,164,164,186,1,58,A1_B2,5.409090909,Noun,1,10.44,2.55,3.29,1.544,8,,,
,,,,,1,,,,,,,A1_B2,derive,,R_z6dwCbGgm0VrUml,MainNoun,2022-09-21_12h54.48.858,SCT,2021.2.3,Win32,59.61607249,,,,0,165,165,157,1,49,A2_B2,2.941176471,Verb,1,12,2,4.72,1.556,6,,,
,,,,k,1,0.642,,,,,,A1_B1,potency,k,R_z6dwCbGgm0VrUml,MainNoun,2022-09-21_12h54.48.858,SCT,2021.2.3,Win32,59.61607249,,,,0,166,166,16,1,6,A2_B2,2.565217391,Noun,1,12.89,2.32,5.84,1.398,7,,,
,,,,,1,,,,,,,A2_B2,reproduce,,R_z6dwCbGgm0VrUml,MainNoun,2022-09-21_12h54.48.858,SCT,2021.2.3,Win32,59.61607249,,,,0,167,167,135,1,42,A1_B1,5.772727273,Verb,1,9.89,3.48,5.63,1.903,9,,,
,,,,,1,,,,,,,A1_B2,replenish,,R_z6dwCbGgm0VrUml,MainNoun,2022-09-21_12h54.48.858,SCT,2021.2.3,Win32,59.61607249,,,,0,168,168,125,1,40,A1_B2,2.166666667,Verb,1,9.33,2.18,6.9,1.431,9,,,
,,,,,1,,,,,,,A2_B2,confront,,R_z6dwCbGgm0VrUml,MainNoun,2022-09-21_12h54.48.858,SCT,2021.2.3,Win32,59.61607249,,,,0,169,169,111,1,35,A1_B2,5.086956522,Verb,1,9.89,2.43,4.59,2.34,8,,,
,,,,k,1,0.6306,,,,,,A2_B1,hierarchy,k,R_z6dwCbGgm0VrUml,MainNoun,2022-09-21_12h54.48.858,SCT,2021.2.3,Win32,59.61607249,,,,0,170,170,110,1,35,A1_B2,6.208333333,Noun,1,11.11,2.59,4.95,1.518,9,,,
,,,,,1,,,,,,,A1_B2,freshen,,R_z6dwCbGgm0VrUml,MainNoun,2022-09-21_12h54.48.858,SCT,2021.2.3,Win32,59.61607249,,,,0,171,171,57,1,19,A1_B2,2.333333333,Verb,1,8.84,2.17,6.56,2.121,7,,,
,,,,,1,,,,,,,A1_B2,unravel,,R_z6dwCbGgm0VrUml,MainNoun,2022-09-21_12h54.48.858,SCT,2021.2.3,Win32,59.61607249,,,,0,172,172,129,1,41,A1_B1,2.8,Verb,1,10.16,2.59,4.39,1.699,7,,,
,,,,k,0,1.7314,,,,,,A1_B2,scramble,,R_z6dwCbGgm0VrUml,MainNoun,2022-09-21_12h54.48.858,SCT,2021.2.3,Win32,59.61607249,,,,0,173,173,9,1,4,A1_B2,2.7,Verb,0.97,8.83,3.31,5.21,2.093,8,,,
,,,,k,1,0.5643,,,,,,A2_B1,guidance,k,R_z6dwCbGgm0VrUml,MainNoun,2022-09-21_12h54.48.858,SCT,2021.2.3,Win32,59.61607249,,,,0,174,174,218,1,67,A2_B1,5.136363636,Noun,1,8.95,2.46,5.95,2.576,8,,,
,,,,,1,,,,,,,A2_B2,reunite,,R_z6dwCbGgm0VrUml,MainNoun,2022-09-21_12h54.48.858,SCT,2021.2.3,Win32,59.61607249,,,,0,175,175,195,1,60,A2_B1,5.619047619,Verb,1,9.44,2.86,6.86,1.568,7,,,
,,,,,1,,,,,,,A2_B2,banish,,R_z6dwCbGgm0VrUml,MainNoun,2022-09-21_12h54.48.858,SCT,2021.2.3,Win32,59.61607249,,,,0,176,176,35,1,10,A2_B2,5.136363636,Verb,1,9.89,2.41,3.85,1.845,6,,,
,,,,k,1,0.6053,,,,,,A2_B1,royalty,k,R_z6dwCbGgm0VrUml,MainNoun,2022-09-21_12h54.48.858,SCT,2021.2.3,Win32,59.61607249,,,,0,177,177,250,1,4,A1_B1,5.136363636,Noun,1,8,3.11,5.52,2.303,7,,,
,,,,,1,,,,,,,A2_B2,coexist,,R_z6dwCbGgm0VrUml,MainNoun,2022-09-21_12h54.48.858,SCT,2021.2.3,Win32,59.61607249,,,,0,178,178,155,1,47,A2_B1,5.347826087,Verb,1,11.56,2.25,5.95,1.415,7,,,
,,,,k,1,0.6584,,,,,,A1_B1,distortion,k,R_z6dwCbGgm0VrUml,MainNoun,2022-09-21_12h54.48.858,SCT,2021.2.3,Win32,59.61607249,,,,0,179,179,0,1,1,A2_B1,2.863636364,Noun,1,11.47,2.3,3.5,1.785,10,,,
,,,,,1,,,,,,,A1_B2,contain,,R_z6dwCbGgm0VrUml,MainNoun,2022-09-21_12h54.48.858,SCT,2021.2.3,Win32,59.61607249,,,,0,180,180,85,1,27,A2_B2,2.52,Verb,1,7.88,2.74,5,2.493,7,,,
,,,,,1,,,,,,,A2_B2,impregnate,,R_z6dwCbGgm0VrUml,MainNoun,2022-09-21_12h54.48.858,SCT,2021.2.3,Win32,59.61607249,,,,0,181,181,175,1,54,A2_B1,5.44,Verb,1,12.95,3.29,4.5,1.362,10,,,
,,,,,1,,,,,,,A2_B2,invade,,R_z6dwCbGgm0VrUml,MainNoun,2022-09-21_12h54.48.858,SCT,2021.2.3,Win32,59.61607249,,,,0,182,182,107,1,34,A1_B2,5.818181818,Verb,1,9.39,3.28,3.32,2.196,6,,,
,,,,,1,,,,,,,A2_B2,consult,,R_z6dwCbGgm0VrUml,MainNoun,2022-09-21_12h54.48.858,SCT,2021.2.3,Win32,59.61607249,,,,0,183,183,91,1,28,A2_B2,6.318181818,Verb,1,10.95,3.04,5.41,2.456,7,,,
,,,,,1,,,,,,,A1_B2,unhook,,R_z6dwCbGgm0VrUml,MainNoun,2022-09-21_12h54.48.858,SCT,2021.2.3,Win32,59.61607249,,,,0,184,184,225,1,69,A1_B2,2.136363636,Verb,1,7.22,3.34,4.55,1.653,6,,,
,,,,,1,,,,,,,A1_B2,terminate,,R_z6dwCbGgm0VrUml,MainNoun,2022-09-21_12h54.48.858,SCT,2021.2.3,Win32,59.61607249,,,,0,185,185,1,1,1,A2_B1,2.80952381,Verb,1,11.21,2.29,3.05,2.149,9,,,
,,,,k,1,0.7482,,,,,,A1_B1,amendment,k,R_z6dwCbGgm0VrUml,MainNoun,2022-09-21_12h54.48.858,SCT,2021.2.3,Win32,59.61607249,,,space,0,186,186,4,1,2,A2_B1,2.95,Noun,1,10.06,2.44,5.6,2.322,9,1.7117,,
,,,,,1,,,,,,,A2_B2,entrust,,R_z6dwCbGgm0VrUml,MainNoun,2022-09-21_12h54.48.858,SCT,2021.2.3,Win32,59.61607249,,,,0,187,187,19,1,6,A2_B2,5.782608696,Verb,1,11.89,2.16,6.32,1.58,7,,,
,,,,k,1,0.7574,,,,,,A1_B1,impediment,k,R_z6dwCbGgm0VrUml,MainNoun,2022-09-21_12h54.48.858,SCT,2021.2.3,Win32,59.61607249,,,,0,188,188,172,1,54,A2_B1,2.666666667,Noun,1,13.47,2.56,4.5,1.491,10,,,
,,,,,1,,,,,,,A2_B2,negotiate,,R_z6dwCbGgm0VrUml,MainNoun,2022-09-21_12h54.48.858,SCT,2021.2.3,Win32,59.61607249,,,,0,189,189,55,1,18,A2_B2,5.409090909,Verb,1,10.85,2,5.57,2.535,9,,,
,,,,k,1,0.7378,,,,,,A1_B1,trajectory,k,R_z6dwCbGgm0VrUml,MainNoun,2022-09-21_12h54.48.858,SCT,2021.2.3,Win32,59.61607249,,,,0,190,190,120,1,39,A2_B2,2,Noun,1,11.94,3.1,4.89,1.978,10,,,
,,,,k,1,0.6463,,,,,,A2_B1,management,k,R_z6dwCbGgm0VrUml,MainNoun,2022-09-21_12h54.48.858,SCT,2021.2.3,Win32,59.61607249,,,,0,191,191,98,1,32,A2_B1,6.181818182,Noun,1,10.05,2.72,4.95,2.775,10,,,
,,,,k,1,0.6238,,,,,,A1_B1,alignment,k,R_z6dwCbGgm0VrUml,MainNoun,2022-09-21_12h54.48.858,SCT,2021.2.3,Win32,59.61607249,,,,0,192,192,64,1,21,A2_B1,2.826086957,Noun,1,11.76,3.26,6,1.833,9,,,
,,,,k,1,0.8032,,,,,,A1_B1,genie,k,R_z6dwCbGgm0VrUml,MainNoun,2022-09-21_12h54.48.858,SCT,2021.2.3,Win32,59.61607249,,,,0,193,193,44,1,16,A1_B2,2.545454545,Noun,0.99,6.67,3.25,6.1,2.253,5,,,
,,,,,1,,,,,,,A1_B2,generate,,R_z6dwCbGgm0VrUml,MainNoun,2022-09-21_12h54.48.858,SCT,2021.2.3,Win32,59.61607249,,,,0,194,194,73,1,23,A1_B1,2.636363636,Verb,1,10.78,2.23,6.14,2.097,8,,,
,,,,k,0,0.7494,,,,,,A2_B2,commandeer,,R_z6dwCbGgm0VrUml,MainNoun,2022-09-21_12h54.48.858,SCT,2021.2.3,Win32,59.61607249,,,,0,195,195,79,1,24,A1_B1,5.55,Verb,1,11.88,3.7,4.43,1.462,10,,,
,,,,,1,,,,,,,A1_B2,unload,,R_z6dwCbGgm0VrUml,MainNoun,2022-09-21_12h54.48.858,SCT,2021.2.3,Win32,59.61607249,,,,0,196,196,25,1,8,A2_B1,2.454545455,Verb,1,7.86,3.21,5.21,2.373,6,,,
,,,,,1,,,,,,,A2_B2,hypnotize,,R_z6dwCbGgm0VrUml,MainNoun,2022-09-21_12h54.48.858,SCT,2021.2.3,Win32,59.61607249,,,,0,197,197,7,1,2,A2_B1,5.095238095,Verb,1,9.89,2.48,5.7,1.505,9,,,
,,,,k,1,0.7049,,,,,,A2_B1,stardom,k,R_z6dwCbGgm0VrUml,MainNoun,2022-09-21_12h54.48.858,SCT,2021.2.3,Win32,59.61607249,,,,0,198,198,118,1,37,A2_B1,5.238095238,Noun,1,10.06,2.26,5.85,1.505,7,,,
,,,,,1,,,,,,,A2_B2,confess,,R_z6dwCbGgm0VrUml,MainNoun,2022-09-21_12h54.48.858,SCT,2021.2.3,Win32,59.61607249,,,,0,199,199,87,1,27,A2_B2,5.5,Verb,1,7.11,2.57,4.85,2.908,7,,,
,,,,k,1,0.6514,,,,,,A1_B1,category,k,R_z6dwCbGgm0VrUml,MainNoun,2022-09-21_12h54.48.858,SCT,2021.2.3,Win32,59.61607249,,,,0,200,200,68,1,22,A2_B2,2.952380952,Noun,1,8.15,2.82,5.05,2.318,8,,,
,,,,,1,,,,,,,A1_B2,confine,,R_z6dwCbGgm0VrUml,MainNoun,2022-09-21_12h54.48.858,SCT,2021.2.3,Win32,59.61607249,,,,0,201,201,149,1,46,A2_B2,2.826086957,Verb,1,9.71,3.07,3,1.708,7,,,
,,,,k,1,1.3654,,,,,,A2_B1,corruption,k,R_z6dwCbGgm0VrUml,MainNoun,2022-09-21_12h54.48.858,SCT,2021.2.3,Win32,59.61607249,,,,0,202,202,2,1,1,A2_B1,5.5,Noun,1,11.17,2.39,3,2.34,10,,,
,,,,k,0,1.4305,,,,,,A1_B2,make,,R_z6dwCbGgm0VrUml,MainNoun,2022-09-21_12h54.48.858,SCT,2021.2.3,Win32,59.61607249,,,,0,203,203,201,1,62,A1_B1,2.391304348,Verb,1,4.68,2.67,6.09,4.85,4,,,
,,,,k,1,0.8129,,,,,,A2_B1,attendance,k,R_z6dwCbGgm0VrUml,MainNoun,2022-09-21_12h54.48.858,SCT,2021.2.3,Win32,59.61607249,,,,0,204,204,238,1,1,A2_B1,5.090909091,Noun,1,7.11,3.07,5.95,2.134,10,,,
,,,,k,1,0.5864,,,,,,A1_B1,fortnight,k,R_z6dwCbGgm0VrUml,MainNoun,2022-09-21_12h54.48.858,SCT,2021.2.3,Win32,59.61607249,,,,0,205,205,60,1,20,A2_B1,2.347826087,Noun,1,10.53,2.71,5.5,1.672,9,,,
,,,,k,1,0.7121,,,,,,A2_B1,congress,k,R_z6dwCbGgm0VrUml,MainNoun,2022-09-21_12h54.48.858,SCT,2021.2.3,Win32,59.61607249,,,,0,206,206,106,1,34,A1_B2,5.571428571,Noun,1,9.05,3.9,3.55,2.623,8,,,
,,,,,1,,,,,,,A1_B2,obstruct,,R_z6dwCbGgm0VrUml,MainNoun,2022-09-21_12h54.48.858,SCT,2021.2.3,Win32,59.61607249,,,,0,207,207,185,1,58,A1_B2,2.45,Verb,1,10.94,2.46,3.61,1.491,8,,,
,,,,,1,,,,,,,A1_B2,maintain,,R_z6dwCbGgm0VrUml,MainNoun,2022-09-21_12h54.48.858,SCT,2021.2.3,Win32,59.61607249,,,,0,208,208,181,1,57,A2_B1,2.684210526,Verb,1,9.94,2.32,6.29,2.821,8,,,
,,,,k,1,0.9653,,,,,,A1_B1,detail,k,R_z6dwCbGgm0VrUml,MainNoun,2022-09-21_12h54.48.858,SCT,2021.2.3,Win32,59.61607249,,,,0,209,209,168,1,53,A1_B1,2.826086957,Noun,0.96,9.79,2.5,5.67,2.996,6,,,
,,,,,1,,,,,,,A2_B2,congratulate,,R_z6dwCbGgm0VrUml,MainNoun,2022-09-21_12h54.48.858,SCT,2021.2.3,Win32,59.61607249,,,,0,210,210,191,1,59,A1_B1,5.76,Verb,1,9.57,3.04,6.33,2.555,12,,,
,,,,,1,,,,,,,A1_B2,replace,,R_z6dwCbGgm0VrUml,MainNoun,2022-09-21_12h54.48.858,SCT,2021.2.3,Win32,59.61607249,,,,0,211,211,93,1,30,A2_B2,2.541666667,Verb,1,7.2,3,5.56,2.834,7,,,
,,,,,1,,,,,,,A2_B2,bicker,,R_z6dwCbGgm0VrUml,MainNoun,2022-09-21_12h54.48.858,SCT,2021.2.3,Win32,59.61607249,,,,0,212,212,151,1,46,A2_B2,5.545454545,Verb,1,8.94,3.15,2.81,1.415,6,,,
,,,,,1,,,,,,,A2_B2,pacify,,R_z6dwCbGgm0VrUml,MainNoun,2022-09-21_12h54.48.858,SCT,2021.2.3,Win32,59.61607249,,,,0,213,213,163,1,50,A1_B2,5.476190476,Verb,1,10.37,2.04,5.67,1.322,6,,,
,,,,,1,,,,,,,A1_B2,reconstruct,,R_z6dwCbGgm0VrUml,MainNoun,2022-09-21_12h54.48.858,SCT,2021.2.3,Win32,59.61607249,,,,0,214,214,65,1,21,A2_B1,2.681818182,Verb,1,10.63,3.2,5.7,1.771,11,,,
,,,,,1,,,,,,,A1_B2,hover,,R_z6dwCbGgm0VrUml,MainNoun,2022-09-21_12h54.48.858,SCT,2021.2.3,Win32,59.61607249,,,,0,215,215,249,1,4,A1_B1,2.75,Verb,1,8.58,3.17,5.5,1.778,5,,,
,,,,,1,,,,,,,A2_B2,remarry,,R_z6dwCbGgm0VrUml,MainNoun,2022-09-21_12h54.48.858,SCT,2021.2.3,Win32,59.61607249,,,,0,216,216,71,1,22,A2_B2,5.652173913,Verb,1,8.65,2.72,5.52,1.653,7,,,
,,,,k,1,0.6803,,,,,,A1_B1,geology,k,R_z6dwCbGgm0VrUml,MainNoun,2022-09-21_12h54.48.858,SCT,2021.2.3,Win32,59.61607249,,,,0,217,217,100,1,33,A1_B1,2.708333333,Noun,1,10,2.9,5.89,1.681,7,,,
,,,,k,1,0.5409,,,,,,A1_B1,solution,k,R_z6dwCbGgm0VrUml,MainNoun,2022-09-21_12h54.48.858,SCT,2021.2.3,Win32,59.61607249,,,,0,218,218,56,1,19,A1_B2,2.952380952,Noun,1,9,2.61,6.3,2.907,8,,,
,,,,k,1,0.6175,,,,,,A2_B1,behavior,k,R_z6dwCbGgm0VrUml,MainNoun,2022-09-21_12h54.48.858,SCT,2021.2.3,Win32,59.61607249,,,,0,219,219,86,1,27,A2_B2,5.5,Noun,1,7.05,2.19,5.28,3.058,8,,,
,,,,k,1,0.5804,,,,,,A2_B1,critique,k,R_z6dwCbGgm0VrUml,MainNoun,2022-09-21_12h54.48.858,SCT,2021.2.3,Win32,59.61607249,,,,0,220,220,242,1,2,A2_B2,5.304347826,Noun,1,11.83,2.55,4.8,1.415,8,,,
,,,,k,1,0.8152,,,,,,A1_B1,dynamo,k,R_z6dwCbGgm0VrUml,MainNoun,2022-09-21_12h54.48.858,SCT,2021.2.3,Win32,59.61607249,,,,0,221,221,176,1,55,A2_B1,2.333333333,Noun,1,12.32,2.71,6.21,1.431,6,,,
,,,,,1,,,,,,,A1_B2,subside,,R_z6dwCbGgm0VrUml,MainNoun,2022-09-21_12h54.48.858,SCT,2021.2.3,Win32,59.61607249,,,,0,222,222,257,1,6,A1_B1,2.590909091,Verb,1,10.44,2.26,5.42,1.322,7,,,
,,,,k,1,0.5985,,,,,,A2_B1,seminar,k,R_z6dwCbGgm0VrUml,MainNoun,2022-09-21_12h54.48.858,SCT,2021.2.3,Win32,59.61607249,,,,0,223,223,90,1,28,A2_B2,5.368421053,Noun,1,11.8,3.48,5.2,2.338,7,,,
,,,,k,1,0.5805,,,,,,A1_B1,chapter,k,R_z6dwCbGgm0VrUml,MainNoun,2022-09-21_12h54.48.858,SCT,2021.2.3,Win32,59.61607249,,,,0,224,224,92,1,30,A2_B2,1.833333333,Noun,1,6.42,3.43,5.7,2.782,7,,,
,,,,k,1,0.488,,,,,,A2_B1,colony,k,R_z6dwCbGgm0VrUml,MainNoun,2022-09-21_12h54.48.858,SCT,2021.2.3,Win32,59.61607249,,,,0,225,225,30,1,9,A1_B1,6.083333333,Noun,1,8.21,3.77,5.52,2.481,6,,,
,,,,,1,,,,,,,A1_B2,restore,,R_z6dwCbGgm0VrUml,MainNoun,2022-09-21_12h54.48.858,SCT,2021.2.3,Win32,59.61607249,,,,0,226,226,89,1,28,A2_B2,2.583333333,Verb,1,10.78,2.79,5.86,2.405,7,,,
,,,,,1,,,,,,,A2_B2,cooperate,,R_z6dwCbGgm0VrUml,MainNoun,2022-09-21_12h54.48.858,SCT,2021.2.3,Win32,59.61607249,,,,0,227,227,211,1,65,A2_B1,6.541666667,Verb,1,8.28,1.87,6.39,2.724,9,,,
,,,,k,0,0.5909,,,,,,A1_B2,assess,,R_z6dwCbGgm0VrUml,MainNoun,2022-09-21_12h54.48.858,SCT,2021.2.3,Win32,59.61607249,,,,0,228,228,17,1,6,A2_B2,2.652173913,Verb,1,11.37,2.26,5.84,1.924,6,,,
,,,,k,1,0.7136,,,,,,A1_B1,onset,k,R_z6dwCbGgm0VrUml,MainNoun,2022-09-21_12h54.48.858,SCT,2021.2.3,Win32,59.61607249,,,,0,229,229,32,1,10,A2_B2,2.304347826,Noun,1,10.72,2.14,4.35,1.643,5,,,
,,,,k,1,0.8995,,,,,,A1_B1,precedent,k,R_z6dwCbGgm0VrUml,MainNoun,2022-09-21_12h54.48.858,SCT,2021.2.3,Win32,59.61607249,,,,0,230,230,164,1,52,A1_B1,2.590909091,Noun,1,10.53,1.63,5.25,2.107,9,,,
,,,,k,1,0.643,,,,,,A2_B1,dynasty,k,R_z6dwCbGgm0VrUml,MainNoun,2022-09-21_12h54.48.858,SCT,2021.2.3,Win32,59.61607249,,,,0,231,231,258,1,6,A1_B1,5.571428571,Noun,1,10.5,2.46,5.16,2.117,7,,,
,,,,,1,,,,,,,A2_B2,conspire,,R_z6dwCbGgm0VrUml,MainNoun,2022-09-21_12h54.48.858,SCT,2021.2.3,Win32,59.61607249,,,,0,232,232,15,1,5,A2_B1,5.5,Verb,0.9,11,2.67,3.9,1.505,8,,,
,,,,k,1,0.7587,,,,,,A1_B1,ventilation,k,R_z6dwCbGgm0VrUml,MainNoun,2022-09-21_12h54.48.858,SCT,2021.2.3,Win32,59.61607249,,,,0,233,233,188,1,59,A1_B1,1.65,Noun,1,10.39,3.48,6.44,2.045,11,,,
,,,,k,1,0.7797,,,,,,A1_B1,percentage,k,R_z6dwCbGgm0VrUml,MainNoun,2022-09-21_12h54.48.858,SCT,2021.2.3,Win32,59.61607249,,,,0,234,234,96,1,32,A2_B1,1.714285714,Noun,1,10.26,2.9,4.81,2.286,10,,,
,,,,k,0,0.8141,,,,,,A2_B2,taunt,,R_z6dwCbGgm0VrUml,MainNoun,2022-09-21_12h54.48.858,SCT,2021.2.3,Win32,59.61607249,,,,0,235,235,207,1,63,A2_B2,5.526315789,Verb,0.88,8.06,2.93,3.4,1.518,5,,,
,,,,k,1,0.6854,,,,,,A1_B1,ingredient,k,R_z6dwCbGgm0VrUml,MainNoun,2022-09-21_12h54.48.858,SCT,2021.2.3,Win32,59.61607249,,,,0,236,236,36,1,12,A1_B2,1.736842105,Noun,1,7.85,3.84,5.86,2.127,10,,,
,,,,,1,,,,,,,A2_B2,attract,,R_z6dwCbGgm0VrUml,MainNoun,2022-09-21_12h54.48.858,SCT,2021.2.3,Win32,59.61607249,,,,0,237,237,147,1,45,A2_B2,5.181818182,Verb,1,8.78,2.73,6.38,2.464,7,,,
,,,,k,1,0.6641,,,,,,A1_B1,finale,k,R_z6dwCbGgm0VrUml,MainNoun,2022-09-21_12h54.48.858,SCT,2021.2.3,Win32,59.61607249,,,,0,238,238,248,1,4,A1_B1,2.875,Noun,1,7.74,2.76,5.26,2.1,6,,,
,,,,,1,,,,,,,A1_B2,minimize,,R_z6dwCbGgm0VrUml,MainNoun,2022-09-21_12h54.48.858,SCT,2021.2.3,Win32,59.61607249,,,,0,239,239,53,1,18,A2_B2,2.625,Verb,1,10.89,2.37,5.16,1.74,8,,,
,,,,,1,,,,,,,A2_B2,donate,,R_z6dwCbGgm0VrUml,MainNoun,2022-09-21_12h54.48.858,SCT,2021.2.3,Win32,59.61607249,,,,0,240,240,223,1,68,A2_B2,5.181818182,Verb,1,8.2,2.88,6.7,2.31,6,,,
,,,,,1,,,,,,,A2_B2,invite,,R_z6dwCbGgm0VrUml,MainNoun,2022-09-21_12h54.48.858,SCT,2021.2.3,Win32,59.61607249,,,,0,241,241,95,1,30,A2_B2,6.090909091,Verb,0.96,6.79,3,5.68,3.179,6,,,
,,,,,1,,,,,,,A1_B2,rearrange,,R_z6dwCbGgm0VrUml,MainNoun,2022-09-21_12h54.48.858,SCT,2021.2.3,Win32,59.61607249,,,,0,242,242,237,1,1,A2_B1,2.727272727,Verb,1,8.11,3.26,5.52,1.949,9,,,
,,,,k,1,0.8301,,,,,,A1_B1,physics,k,R_z6dwCbGgm0VrUml,MainNoun,2022-09-21_12h54.48.858,SCT,2021.2.3,Win32,59.61607249,,,,0,243,243,140,1,44,A2_B1,1.913043478,Noun,1,11.68,3.07,5.53,2.684,7,,,
,,,,k,1,0.7014,,,,,,A2_B1,aggressor,k,R_z6dwCbGgm0VrUml,MainNoun,2022-09-21_12h54.48.858,SCT,2021.2.3,Win32,59.61607249,,,,0,244,244,114,1,36,A1_B2,5.086956522,Noun,1,11.47,3.29,2.8,1.477,9,,,
,,,,k,1,0.8523,,,,,,A2_B1,esteem,k,R_z6dwCbGgm0VrUml,MainNoun,2022-09-21_12h54.48.858,SCT,2021.2.3,Win32,59.61607249,,,,0,245,245,42,1,14,A1_B2,5.217391304,Noun,1,10.55,1.83,6.38,1.94,6,,,
,,,,k,1,0.5336,,,,,,A1_B1,option,k,R_z6dwCbGgm0VrUml,MainNoun,2022-09-21_12h54.48.858,SCT,2021.2.3,Win32,59.61607249,,,,0,246,246,220,1,68,A2_B2,2.791666667,Noun,1,8.79,2.39,6.37,2.868,6,,,
,,,,,1,,,,,,,A1_B2,reinforce,,R_z6dwCbGgm0VrUml,MainNoun,2022-09-21_12h54.48.858,SCT,2021.2.3,Win32,59.61607249,,,,0,247,247,21,1,7,A2_B1,2.904761905,Verb,1,10.2,2.32,5.53,1.69,9,,,
,,,,,1,,,,,,,A1_B2,calculate,,R_z6dwCbGgm0VrUml,MainNoun,2022-09-21_12h54.48.858,SCT,2021.2.3,Win32,59.61607249,,,,0,248,248,97,1,32,A2_B1,2.368421053,Verb,1,9.26,2.74,4.89,2.029,9,,,
,,,,,1,,,,,,,A2_B2,lend,,R_z6dwCbGgm0VrUml,MainNoun,2022-09-21_12h54.48.858,SCT,2021.2.3,Win32,59.61607249,,,,0,249,249,27,1,8,A2_B1,5,Verb,1,8.45,3.07,4.95,2.775,4,,,
,,,,k,1,0.7109,,,,,,A1_B1,countdown,k,R_z6dwCbGgm0VrUml,MainNoun,2022-09-21_12h54.48.858,SCT,2021.2.3,Win32,59.61607249,,,,0,250,250,236,1,1,A2_B1,2.956521739,Noun,0.99,6.26,3.3,5.64,2.258,9,,,
,,,,,1,,,,,,,A1_B2,simplify,,R_z6dwCbGgm0VrUml,MainNoun,2022-09-21_12h54.48.858,SCT,2021.2.3,Win32,59.61607249,,,,0,251,251,209,1,65,A2_B1,2.761904762,Verb,1,8.53,1.89,6.35,1.672,8,,,
,,,,k,1,0.7313,,,,,,A1_B1,outcome,k,R_z6dwCbGgm0VrUml,MainNoun,2022-09-21_12h54.48.858,SCT,2021.2.3,Win32,59.61607249,,,,0,252,252,216,1,67,A2_B1,2.956521739,Noun,1,9.53,2.27,5.62,2.305,7,,,
,,,,k,1,0.7162,,,,,,A1_B1,volumes,k,R_z6dwCbGgm0VrUml,MainNoun,2022-09-21_12h54.48.858,SCT,2021.2.3,Win32,59.61607249,,,,0,253,253,144,1,45,A2_B2,2,Noun,1,9.58,3.03,6,1.74,7,,,
,,,,,1,,,,,,,A1_B2,decipher,,R_z6dwCbGgm0VrUml,MainNoun,2022-09-21_12h54.48.858,SCT,2021.2.3,Win32,59.61607249,,,,0,254,254,109,1,35,A1_B2,2.947368421,Verb,1,10.84,2.83,5.09,1.944,8,,,
,,,,k,1,0.9381,,,,,,A1_B1,reference,k,R_z6dwCbGgm0VrUml,MainNoun,2022-09-21_12h54.48.858,SCT,2021.2.3,Win32,59.61607249,,,,0,255,255,180,1,57,A2_B1,2.761904762,Noun,0.95,8.67,2.38,5.63,2.636,9,,,
,,,,,1,,,,,,,A2_B2,wrestle,,R_z6dwCbGgm0VrUml,MainNoun,2022-09-21_12h54.48.858,SCT,2021.2.3,Win32,59.61607249,,,,0,256,256,231,1,70,A2_B1,5.04,Verb,0.91,5,4.33,4.53,2.248,7,,,
,,,,,1,,,,,,,A2_B2,manipulate,,R_z6dwCbGgm0VrUml,MainNoun,2022-09-21_12h54.48.858,SCT,2021.2.3,Win32,59.61607249,,,,0,257,257,3,1,1,A2_B1,5.47826087,Verb,1,11.1,2.55,3.21,2.25,10,,,
,,,,k,1,0.6914,,,,,,A1_B1,catalyst,k,R_z6dwCbGgm0VrUml,MainNoun,2022-09-21_12h54.48.858,SCT,2021.2.3,Win32,59.61607249,,,,0,258,258,240,1,2,A2_B2,2.238095238,Noun,1,12.56,2.85,5.3,1.613,8,,,
,,,,,1,,,,,,,A2_B2,tolerate,,R_z6dwCbGgm0VrUml,MainNoun,2022-09-21_12h54.48.858,SCT,2021.2.3,Win32,59.61607249,,,,0,259,259,247,1,3,A2_B1,5.761904762,Verb,1,10.45,1.78,6.19,2.55,8,,,
,,,,k,1,1.4045,,,,,,A2_B1,labor,k,R_z6dwCbGgm0VrUml,MainNoun,2022-09-21_12h54.48.858,SCT,2021.2.3,Win32,59.61607249,,,,0,260,260,26,1,8,A2_B1,5.523809524,Noun,0.97,8.28,3.08,4.74,2.794,5,,,
,,,,k,1,0.7034,,,,,,A2_B1,history,k,R_z6dwCbGgm0VrUml,MainNoun,2022-09-21_12h54.48.858,SCT,2021.2.3,Win32,59.61607249,,,,0,261,261,94,1,30,A2_B2,5.416666667,Noun,1,6.42,2.96,6,3.631,7,,,
,,,,k,1,0.6602,,,,,,A2_B1,job,k,R_z6dwCbGgm0VrUml,MainNoun,2022-09-21_12h54.48.858,SCT,2021.2.3,Win32,59.61607249,,,,0,262,262,202,1,62,A1_B1,5.695652174,Noun,1,5.39,3.19,5.64,4.324,3,,,
,,,,,1,,,,,,,A1_B2,pronounce,,R_z6dwCbGgm0VrUml,MainNoun,2022-09-21_12h54.48.858,SCT,2021.2.3,Win32,59.61607249,,,,0,263,263,217,1,67,A2_B1,2.958333333,Verb,1,8.42,2.63,5.61,2.521,9,,,
,,,,k,1,0.8631,,,,,,A2_B1,stepson,k,R_z6dwCbGgm0VrUml,MainNoun,2022-09-21_12h54.48.858,SCT,2021.2.3,Win32,59.61607249,,,,0,264,264,226,1,69,A1_B2,5.083333333,Noun,1,7.94,3.68,4.81,1.447,7,,,
,,,,k,1,0.8815,,,,,,A2_B1,adulthood,k,R_z6dwCbGgm0VrUml,MainNoun,2022-09-21_12h54.48.858,SCT,2021.2.3,Win32,59.61607249,,,,0,265,265,214,1,66,A1_B1,5.714285714,Noun,1,9.95,2.5,5.05,1.58,9,,,
,,,,,1,,,,,,,A1_B2,arise,,R_z6dwCbGgm0VrUml,MainNoun,2022-09-21_12h54.48.858,SCT,2021.2.3,Win32,59.61607249,,,,0,266,266,45,1,16,A1_B2,2.619047619,Verb,1,6.89,3.17,6.17,2.182,5,,,
,,,,,1,,,,,,,A1_B2,postpone,,R_z6dwCbGgm0VrUml,MainNoun,2022-09-21_12h54.48.858,SCT,2021.2.3,Win32,59.61607249,,,,0,267,267,13,1,5,A2_B1,2.916666667,Verb,1,10.42,2.29,4.32,2.301,8,,,
,,,,,,,,,,,,,,,R_z6dwCbGgm0VrUml,MainNoun,2022-09-21_12h54.48.858,SCT,2021.2.3,Win32,59.61607249,,,,,,,,,,,,,,,,,,,,space,2.4327
