intro_resp.keys,intro_resp.rt,EmbInstruct_cont.keys,EmbInstruct_cont.rt,embResp.keys,embResp.corr,Emb_practice.thisRepN,Emb_practice.thisTrialN,Emb_practice.thisN,Emb_practice.thisIndex,Emb_practice.ran,condition,Word,Cresp,participant,session,date,expName,psychopyVersion,OS,frameRate,embResp.rt,key_resp.keys,key_resp.rt,key_resp_2.keys,Embody.thisRepN,Embody.thisTrialN,Embody.thisN,Embody.thisIndex,Embody.ran,item_nr,match_null,Socialness,Dom_PoS_SUBTLEX,Percentage_dom_PoS,AoA_Rating,Concreteness,Valence,LgSUBTLWF,Length,key_resp_2.rt,task_cont.keys,task_cont.rt
space,4.6294,space,42.2007,,1,0,0,0,4,1,A1_B1,jungle,,R_20NndKuy24lEi5t,MainVerb,2022-06-13_16h02.54.243,SCT_verb,2021.2.3,Win32,144.0092166,,,,,,,,,,,,,,,,,,,,,,
,,,,,1,0,1,1,2,1,A2_B1,heartbreak,,R_20NndKuy24lEi5t,MainVerb,2022-06-13_16h02.54.243,SCT_verb,2021.2.3,Win32,144.0092166,,,,,,,,,,,,,,,,,,,,,,
,,,,k,1,0,2,2,3,1,A2_B2,adopt,k,R_20NndKuy24lEi5t,MainVerb,2022-06-13_16h02.54.243,SCT_verb,2021.2.3,Win32,144.0092166,1.0411,,,,,,,,,,,,,,,,,,,,,
,,,,k,1,0,3,3,5,1,A1_B2,solve,k,R_20NndKuy24lEi5t,MainVerb,2022-06-13_16h02.54.243,SCT_verb,2021.2.3,Win32,144.0092166,0.8308,,,,,,,,,,,,,,,,,,,,,
,,,,k,1,0,4,4,7,1,A2_B2,convince,k,R_20NndKuy24lEi5t,MainVerb,2022-06-13_16h02.54.243,SCT_verb,2021.2.3,Win32,144.0092166,0.9481,,,,,,,,,,,,,,,,,,,,,
,,,,k,1,0,5,5,1,1,A1_B2,reduce,k,R_20NndKuy24lEi5t,MainVerb,2022-06-13_16h02.54.243,SCT_verb,2021.2.3,Win32,144.0092166,0.7329,,,,,,,,,,,,,,,,,,,,,
,,,,,1,0,6,6,6,1,A2_B1,drama,,R_20NndKuy24lEi5t,MainVerb,2022-06-13_16h02.54.243,SCT_verb,2021.2.3,Win32,144.0092166,,,,,,,,,,,,,,,,,,,,,,
,,,,,1,0,7,7,0,1,A1_B1,obstacle,,R_20NndKuy24lEi5t,MainVerb,2022-06-13_16h02.54.243,SCT_verb,2021.2.3,Win32,144.0092166,,,,,,,,,,,,,,,,,,,,,,
,,,,,1,,,,,,A2_B1,nobility,,R_20NndKuy24lEi5t,MainVerb,2022-06-13_16h02.54.243,SCT_verb,2021.2.3,Win32,144.0092166,,space,20.8957,,0,0,0,142,1,44,A2_B1,5.708333333,Noun,1,11.39,2.81,5.83,1.929,8,,,
,,,,,1,,,,,,A1_B1,wrapper,,R_20NndKuy24lEi5t,MainVerb,2022-06-13_16h02.54.243,SCT_verb,2021.2.3,Win32,144.0092166,,,,,0,1,1,228,1,70,A2_B1,2.045454545,Noun,1,6.11,4.39,4.79,1.935,7,,,
,,,,k,1,,,,,,A1_B2,replenish,k,R_20NndKuy24lEi5t,MainVerb,2022-06-13_16h02.54.243,SCT_verb,2021.2.3,Win32,144.0092166,0.8357,,,,0,2,2,125,1,40,A1_B2,2.166666667,Verb,1,9.33,2.18,6.9,1.431,9,,,
,,,,,1,,,,,,A2_B1,congress,,R_20NndKuy24lEi5t,MainVerb,2022-06-13_16h02.54.243,SCT_verb,2021.2.3,Win32,144.0092166,,,,,0,3,3,106,1,34,A1_B2,5.571428571,Noun,1,9.05,3.9,3.55,2.623,8,,,
,,,,k,1,,,,,,A1_B2,hover,k,R_20NndKuy24lEi5t,MainVerb,2022-06-13_16h02.54.243,SCT_verb,2021.2.3,Win32,144.0092166,0.6858,,,,0,4,4,249,1,4,A1_B1,2.75,Verb,1,8.58,3.17,5.5,1.778,5,,,
,,,,k,1,,,,,,A2_B2,pacify,k,R_20NndKuy24lEi5t,MainVerb,2022-06-13_16h02.54.243,SCT_verb,2021.2.3,Win32,144.0092166,0.6666,,,,0,5,5,163,1,50,A1_B2,5.476190476,Verb,1,10.37,2.04,5.67,1.322,6,,,
,,,,,1,,,,,,A1_B1,trajectory,,R_20NndKuy24lEi5t,MainVerb,2022-06-13_16h02.54.243,SCT_verb,2021.2.3,Win32,144.0092166,,,,,0,6,6,120,1,39,A2_B2,2,Noun,1,11.94,3.1,4.89,1.978,10,,,
,,,,,1,,,,,,A1_B1,array,,R_20NndKuy24lEi5t,MainVerb,2022-06-13_16h02.54.243,SCT_verb,2021.2.3,Win32,144.0092166,,,,,0,7,7,40,1,14,A1_B2,2.363636364,Noun,1,10.79,2.54,5.9,2.037,5,,,
,,,,,1,,,,,,A2_B1,rebellion,,R_20NndKuy24lEi5t,MainVerb,2022-06-13_16h02.54.243,SCT_verb,2021.2.3,Win32,144.0092166,,,,,0,8,8,130,1,41,A1_B1,6,Noun,1,10,2.93,4.79,2.117,9,,,
,,,,,1,,,,,,A1_B1,outage,,R_20NndKuy24lEi5t,MainVerb,2022-06-13_16h02.54.243,SCT_verb,2021.2.3,Win32,144.0092166,,,,,0,9,9,204,1,63,A2_B2,2.95,Noun,1,9.06,2.83,3.86,1.342,6,,,
,,,,k,1,,,,,,A1_B2,enter,k,R_20NndKuy24lEi5t,MainVerb,2022-06-13_16h02.54.243,SCT_verb,2021.2.3,Win32,144.0092166,0.8626,,,,0,10,10,265,1,8,A1_B2,2.739130435,Verb,1,5.67,3.12,6.09,3.181,5,,,
,,,,,1,,,,,,A1_B1,genie,,R_20NndKuy24lEi5t,MainVerb,2022-06-13_16h02.54.243,SCT_verb,2021.2.3,Win32,144.0092166,,,,,0,11,11,44,1,16,A1_B2,2.545454545,Noun,0.99,6.67,3.25,6.1,2.253,5,,,
,,,,,1,,,,,,A1_B1,physics,,R_20NndKuy24lEi5t,MainVerb,2022-06-13_16h02.54.243,SCT_verb,2021.2.3,Win32,144.0092166,,,,,0,12,12,140,1,44,A2_B1,1.913043478,Noun,1,11.68,3.07,5.53,2.684,7,,,
,,,,,1,,,,,,A1_B1,delusion,,R_20NndKuy24lEi5t,MainVerb,2022-06-13_16h02.54.243,SCT_verb,2021.2.3,Win32,144.0092166,,,,,0,13,13,184,1,58,A1_B2,2.695652174,Noun,1,9.95,2.3,3.3,2.143,8,,,
,,,,k,1,,,,,,A1_B2,deduct,k,R_20NndKuy24lEi5t,MainVerb,2022-06-13_16h02.54.243,SCT_verb,2021.2.3,Win32,144.0092166,0.8151,,,,0,14,14,33,1,10,A2_B2,2.304347826,Verb,1,10.84,2.31,4.24,1.748,6,,,
,,,,,1,,,,,,A1_B1,category,,R_20NndKuy24lEi5t,MainVerb,2022-06-13_16h02.54.243,SCT_verb,2021.2.3,Win32,144.0092166,,,,,0,15,15,68,1,22,A2_B2,2.952380952,Noun,1,8.15,2.82,5.05,2.318,8,,,
,,,,k,1,,,,,,A1_B2,restore,k,R_20NndKuy24lEi5t,MainVerb,2022-06-13_16h02.54.243,SCT_verb,2021.2.3,Win32,144.0092166,0.769,,,,0,16,16,89,1,28,A2_B2,2.583333333,Verb,1,10.78,2.79,5.86,2.405,7,,,
,,,,k,0,,,,,,A2_B1,critique,,R_20NndKuy24lEi5t,MainVerb,2022-06-13_16h02.54.243,SCT_verb,2021.2.3,Win32,144.0092166,0.7903,,,,0,17,17,242,1,2,A2_B2,5.304347826,Noun,1,11.83,2.55,4.8,1.415,8,,,
,,,,,1,,,,,,A1_B1,finale,,R_20NndKuy24lEi5t,MainVerb,2022-06-13_16h02.54.243,SCT_verb,2021.2.3,Win32,144.0092166,,,,,0,18,18,248,1,4,A1_B1,2.875,Noun,1,7.74,2.76,5.26,2.1,6,,,
,,,,k,1,,,,,,A2_B2,engage,k,R_20NndKuy24lEi5t,MainVerb,2022-06-13_16h02.54.243,SCT_verb,2021.2.3,Win32,144.0092166,0.8475,,,,0,19,19,43,1,14,A1_B2,5.1,Verb,1,10.42,2.07,6.6,2.498,6,,,
,,,,,1,,,,,,A2_B1,dynasty,,R_20NndKuy24lEi5t,MainVerb,2022-06-13_16h02.54.243,SCT_verb,2021.2.3,Win32,144.0092166,,,,,0,20,20,258,1,6,A1_B1,5.571428571,Noun,1,10.5,2.46,5.16,2.117,7,,,
,,,,k,1,,,,,,A1_B2,reinforce,k,R_20NndKuy24lEi5t,MainVerb,2022-06-13_16h02.54.243,SCT_verb,2021.2.3,Win32,144.0092166,0.6494,,,,0,21,21,21,1,7,A2_B1,2.904761905,Verb,1,10.2,2.32,5.53,1.69,9,,,
,,,,k,1,,,,,,A1_B2,replicate,k,R_20NndKuy24lEi5t,MainVerb,2022-06-13_16h02.54.243,SCT_verb,2021.2.3,Win32,144.0092166,0.6437,,,,0,22,22,77,1,24,A1_B1,2.739130435,Verb,1,11.26,3.33,4.95,1.58,9,,,
,,,,,1,,,,,,A2_B1,talker,,R_20NndKuy24lEi5t,MainVerb,2022-06-13_16h02.54.243,SCT_verb,2021.2.3,Win32,144.0092166,,,,,0,23,23,230,1,70,A2_B1,6.05,Noun,1,5.74,4.39,4.55,1.964,6,,,
,,,,,1,,,,,,A2_B1,colony,,R_20NndKuy24lEi5t,MainVerb,2022-06-13_16h02.54.243,SCT_verb,2021.2.3,Win32,144.0092166,,,,,0,24,24,30,1,9,A1_B1,6.083333333,Noun,1,8.21,3.77,5.52,2.481,6,,,
,,,,,1,,,,,,A1_B1,bleeder,,R_20NndKuy24lEi5t,MainVerb,2022-06-13_16h02.54.243,SCT_verb,2021.2.3,Win32,144.0092166,,,,,0,25,25,148,1,46,A2_B2,2.8,Noun,1,9.76,3.5,3.29,1.785,7,,,
,,,,k,1,,,,,,A1_B2,obstruct,k,R_20NndKuy24lEi5t,MainVerb,2022-06-13_16h02.54.243,SCT_verb,2021.2.3,Win32,144.0092166,1.586,,,,0,26,26,185,1,58,A1_B2,2.45,Verb,1,10.94,2.46,3.61,1.491,8,,,
,,,,k,1,,,,,,A2_B2,brainwash,k,R_20NndKuy24lEi5t,MainVerb,2022-06-13_16h02.54.243,SCT_verb,2021.2.3,Win32,144.0092166,0.8111,,,,0,27,27,187,1,58,A1_B2,5.083333333,Verb,0.91,11.53,2.21,3.11,1.362,9,,,
,,,,,1,,,,,,A1_B1,stealth,,R_20NndKuy24lEi5t,MainVerb,2022-06-13_16h02.54.243,SCT_verb,2021.2.3,Win32,144.0092166,,,,,0,28,28,116,1,37,A2_B1,2.85,Noun,1,10.58,2.76,5.45,2.155,7,,,
,,,,k,1,,,,,,A1_B2,tremble,k,R_20NndKuy24lEi5t,MainVerb,2022-06-13_16h02.54.243,SCT_verb,2021.2.3,Win32,144.0092166,1.4804,,,,0,29,29,105,1,34,A1_B2,2.227272727,Verb,1,8.89,3.61,3.18,2.061,7,,,
,,,,k,1,,,,,,A1_B2,cleanse,k,R_20NndKuy24lEi5t,MainVerb,2022-06-13_16h02.54.243,SCT_verb,2021.2.3,Win32,144.0092166,0.7006,,,,0,30,30,253,1,5,A2_B1,2.75,Verb,1,8.11,3.31,6.65,1.875,7,,,
,,,,k,1,,,,,,A2_B2,donate,k,R_20NndKuy24lEi5t,MainVerb,2022-06-13_16h02.54.243,SCT_verb,2021.2.3,Win32,144.0092166,0.6702,,,,0,31,31,223,1,68,A2_B2,5.181818182,Verb,1,8.2,2.88,6.7,2.31,6,,,
,,,,,1,,,,,,A2_B1,teamwork,,R_20NndKuy24lEi5t,MainVerb,2022-06-13_16h02.54.243,SCT_verb,2021.2.3,Win32,144.0092166,,,,,0,32,32,210,1,65,A2_B1,6.72,Noun,1,7.8,2.37,6.26,2.013,8,,,
,,,,k,1,,,,,,A2_B2,interact,k,R_20NndKuy24lEi5t,MainVerb,2022-06-13_16h02.54.243,SCT_verb,2021.2.3,Win32,144.0092166,1.3946,,,,0,33,33,103,1,33,A1_B1,5.217391304,Verb,1,9.58,2.88,6,1.869,8,,,
,,,,,1,,,,,,A1_B1,dimension,,R_20NndKuy24lEi5t,MainVerb,2022-06-13_16h02.54.243,SCT_verb,2021.2.3,Win32,144.0092166,,,,,0,34,34,52,1,18,A2_B2,2.434782609,Noun,1,10.26,2.5,5.24,2.375,9,,,
,,,,k,1,,,,,,A2_B2,confide,k,R_20NndKuy24lEi5t,MainVerb,2022-06-13_16h02.54.243,SCT_verb,2021.2.3,Win32,144.0092166,1.0833,,,,0,35,35,263,1,7,A1_B1,5.2,Verb,1,11.22,1.81,6.21,1.991,7,,,
,,,,k,1,,,,,,A1_B2,dissolve,k,R_20NndKuy24lEi5t,MainVerb,2022-06-13_16h02.54.243,SCT_verb,2021.2.3,Win32,144.0092166,1.31,,,,0,36,36,5,1,2,A2_B1,2.208333333,Verb,1,9.2,3.15,5.43,1.982,8,,,
,,,,k,1,,,,,,A1_B2,enhance,k,R_20NndKuy24lEi5t,MainVerb,2022-06-13_16h02.54.243,SCT_verb,2021.2.3,Win32,144.0092166,0.7292,,,,0,37,37,193,1,60,A2_B1,2.523809524,Verb,1,9.95,2.21,6.62,2.1,7,,,
,,,,k,1,,,,,,A2_B2,supervise,k,R_20NndKuy24lEi5t,MainVerb,2022-06-13_16h02.54.243,SCT_verb,2021.2.3,Win32,144.0092166,0.7213,,,,0,38,38,99,1,32,A2_B1,5.318181818,Verb,1,11,2.48,5.05,1.996,9,,,
,,,,k,1,,,,,,A2_B2,administer,k,R_20NndKuy24lEi5t,MainVerb,2022-06-13_16h02.54.243,SCT_verb,2021.2.3,Win32,144.0092166,0.7238,,,,0,39,39,215,1,66,A1_B1,5,Verb,1,9.42,2.53,4.4,1.935,10,,,
,,,,,1,,,,,,A2_B1,privilege,,R_20NndKuy24lEi5t,MainVerb,2022-06-13_16h02.54.243,SCT_verb,2021.2.3,Win32,144.0092166,,,,,0,40,40,182,1,57,A2_B1,5.12,Noun,1,9.24,1.93,5.81,2.735,9,,,
,,,,k,0,,,,,,A1_B1,layer,,R_20NndKuy24lEi5t,MainVerb,2022-06-13_16h02.54.243,SCT_verb,2021.2.3,Win32,144.0092166,1.6187,,,,0,41,41,28,1,9,A1_B1,2.095238095,Noun,0.97,8.28,3.52,5.2,2.279,5,,,
,,,,,1,,,,,,A2_B1,royalty,,R_20NndKuy24lEi5t,MainVerb,2022-06-13_16h02.54.243,SCT_verb,2021.2.3,Win32,144.0092166,,,,,0,42,42,250,1,4,A1_B1,5.136363636,Noun,1,8,3.11,5.52,2.303,7,,,
,,,,k,1,,,,,,A2_B2,authorize,k,R_20NndKuy24lEi5t,MainVerb,2022-06-13_16h02.54.243,SCT_verb,2021.2.3,Win32,144.0092166,1.2774,,,,0,43,43,23,1,7,A2_B1,5.086956522,Verb,1,9.84,2.22,5.37,2.025,9,,,
,,,,k,1,,,,,,A1_B2,terminate,k,R_20NndKuy24lEi5t,MainVerb,2022-06-13_16h02.54.243,SCT_verb,2021.2.3,Win32,144.0092166,0.635,,,,0,44,44,1,1,1,A2_B1,2.80952381,Verb,1,11.21,2.29,3.05,2.149,9,,,
,,,,,1,,,,,,A1_B1,solution,,R_20NndKuy24lEi5t,MainVerb,2022-06-13_16h02.54.243,SCT_verb,2021.2.3,Win32,144.0092166,,,,,0,45,45,56,1,19,A1_B2,2.952380952,Noun,1,9,2.61,6.3,2.907,8,,,
,,,,,1,,,,,,A2_B1,speech,,R_20NndKuy24lEi5t,MainVerb,2022-06-13_16h02.54.243,SCT_verb,2021.2.3,Win32,144.0092166,,,,,0,46,46,266,1,8,A1_B2,6.08,Noun,1,6.22,3.37,5.62,3.288,6,,,
,,,,,1,,,,,,A2_B1,esteem,,R_20NndKuy24lEi5t,MainVerb,2022-06-13_16h02.54.243,SCT_verb,2021.2.3,Win32,144.0092166,,,,,0,47,47,42,1,14,A1_B2,5.217391304,Noun,1,10.55,1.83,6.38,1.94,6,,,
,,,,k,1,,,,,,A1_B2,accelerate,k,R_20NndKuy24lEi5t,MainVerb,2022-06-13_16h02.54.243,SCT_verb,2021.2.3,Win32,144.0092166,1.5989,,,,0,48,48,189,1,59,A1_B1,2.25,Verb,1,10.74,3.48,6.1,1.819,10,,,
,,,,,1,,,,,,A1_B1,volume,,R_20NndKuy24lEi5t,MainVerb,2022-06-13_16h02.54.243,SCT_verb,2021.2.3,Win32,144.0092166,,,,,0,49,49,84,1,27,A2_B2,2.772727273,Noun,1,6.35,3.07,5.25,2.55,6,,,
,,,,,1,,,,,,A1_B1,gravity,,R_20NndKuy24lEi5t,MainVerb,2022-06-13_16h02.54.243,SCT_verb,2021.2.3,Win32,144.0092166,,,,,0,50,50,208,1,65,A2_B1,2.041666667,Noun,1,8.39,2.86,5.81,2.546,7,,,
,,,,,1,,,,,,A2_B1,reviewer,,R_20NndKuy24lEi5t,MainVerb,2022-06-13_16h02.54.243,SCT_verb,2021.2.3,Win32,144.0092166,,,,,0,51,51,10,1,4,A1_B2,5.272727273,Noun,1,9.68,3.67,5.16,1.431,8,,,
,,,,,1,,,,,,A2_B1,event,,R_20NndKuy24lEi5t,MainVerb,2022-06-13_16h02.54.243,SCT_verb,2021.2.3,Win32,144.0092166,,,,,0,52,52,138,1,43,A1_B2,5.130434783,Noun,1,7.81,2.69,6.21,3.129,5,,,
,,,,k,1,,,,,,A2_B2,greet,k,R_20NndKuy24lEi5t,MainVerb,2022-06-13_16h02.54.243,SCT_verb,2021.2.3,Win32,144.0092166,0.7569,,,,0,53,53,47,1,16,A1_B2,6.045454545,Verb,1,6.47,2.96,6.25,2.43,5,,,
,,,,k,1,,,,,,A2_B2,infiltrate,k,R_20NndKuy24lEi5t,MainVerb,2022-06-13_16h02.54.243,SCT_verb,2021.2.3,Win32,144.0092166,0.7253,,,,0,54,54,123,1,39,A2_B2,5,Verb,1,12,2.71,4.41,1.935,10,,,
,,,,,1,,,,,,A1_B1,nightfall,,R_20NndKuy24lEi5t,MainVerb,2022-06-13_16h02.54.243,SCT_verb,2021.2.3,Win32,144.0092166,,,,,0,55,55,252,1,5,A2_B1,1.708333333,Noun,1,8.17,3.79,6.63,2.075,9,,,
,,,,k,1,,,,,,A2_B2,impregnate,k,R_20NndKuy24lEi5t,MainVerb,2022-06-13_16h02.54.243,SCT_verb,2021.2.3,Win32,144.0092166,1.4652,,,,0,56,56,175,1,54,A2_B1,5.44,Verb,1,12.95,3.29,4.5,1.362,10,,,
,,,,k,1,,,,,,A2_B2,attract,k,R_20NndKuy24lEi5t,MainVerb,2022-06-13_16h02.54.243,SCT_verb,2021.2.3,Win32,144.0092166,0.9641,,,,0,57,57,147,1,45,A2_B2,5.181818182,Verb,1,8.78,2.73,6.38,2.464,7,,,
,,,,k,1,,,,,,A1_B2,renew,k,R_20NndKuy24lEi5t,MainVerb,2022-06-13_16h02.54.243,SCT_verb,2021.2.3,Win32,144.0092166,1.0157,,,,0,58,58,161,1,50,A1_B2,2.958333333,Verb,1,10.06,2.07,6,2.049,5,,,
,,,,,1,,,,,,A1_B1,figment,,R_20NndKuy24lEi5t,MainVerb,2022-06-13_16h02.54.243,SCT_verb,2021.2.3,Win32,144.0092166,,,,,0,59,59,256,1,6,A1_B1,2.333333333,Noun,1,9.63,2.04,5,1.748,7,,,
,,,,,1,,,,,,A2_B1,fidelity,,R_20NndKuy24lEi5t,MainVerb,2022-06-13_16h02.54.243,SCT_verb,2021.2.3,Win32,144.0092166,,,,,0,60,60,18,1,6,A2_B2,5.75,Noun,1,12.82,1.87,6.7,2.009,8,,,
,,,,,1,,,,,,A2_B1,exhibition,,R_20NndKuy24lEi5t,MainVerb,2022-06-13_16h02.54.243,SCT_verb,2021.2.3,Win32,144.0092166,,,,,0,61,61,66,1,21,A2_B1,5.272727273,Noun,1,11.25,3.52,5.53,2.318,10,,,
,,,,k,1,,,,,,A1_B2,unload,k,R_20NndKuy24lEi5t,MainVerb,2022-06-13_16h02.54.243,SCT_verb,2021.2.3,Win32,144.0092166,1.4559,,,,0,62,62,25,1,8,A2_B1,2.454545455,Verb,1,7.86,3.21,5.21,2.373,6,,,
,,,,,1,,,,,,A2_B1,solitude,,R_20NndKuy24lEi5t,MainVerb,2022-06-13_16h02.54.243,SCT_verb,2021.2.3,Win32,144.0092166,,,,,0,63,63,158,1,49,A2_B2,5,Noun,0.97,12,2.07,4.76,2.013,8,,,
,,,,k,1,,,,,,A1_B2,summarize,k,R_20NndKuy24lEi5t,MainVerb,2022-06-13_16h02.54.243,SCT_verb,2021.2.3,Win32,144.0092166,1.2332,,,,0,64,64,213,1,66,A1_B1,2.75,Verb,1,10.74,2.32,4.89,1.322,9,,,
,,,,,1,,,,,,A1_B1,agility,,R_20NndKuy24lEi5t,MainVerb,2022-06-13_16h02.54.243,SCT_verb,2021.2.3,Win32,144.0092166,,,,,0,65,65,48,1,17,A2_B1,2.869565217,Noun,1,10.06,2.38,6.55,1.38,7,,,
,,,,,1,,,,,,A2_B1,history,,R_20NndKuy24lEi5t,MainVerb,2022-06-13_16h02.54.243,SCT_verb,2021.2.3,Win32,144.0092166,,,,,0,66,66,94,1,30,A2_B2,5.416666667,Noun,1,6.42,2.96,6,3.631,7,,,
,,,,k,1,,,,,,A2_B2,attend,k,R_20NndKuy24lEi5t,MainVerb,2022-06-13_16h02.54.243,SCT_verb,2021.2.3,Win32,144.0092166,1.4248,,,,0,67,67,31,1,9,A1_B1,5.76,Verb,1,7.72,3.17,5.4,2.855,6,,,
,,,,k,1,,,,,,A2_B2,confront,k,R_20NndKuy24lEi5t,MainVerb,2022-06-13_16h02.54.243,SCT_verb,2021.2.3,Win32,144.0092166,0.6539,,,,0,68,68,111,1,35,A1_B2,5.086956522,Verb,1,9.89,2.43,4.59,2.34,8,,,
,,,,,1,,,,,,A1_B1,amendment,,R_20NndKuy24lEi5t,MainVerb,2022-06-13_16h02.54.243,SCT_verb,2021.2.3,Win32,144.0092166,,,,,0,69,69,4,1,2,A2_B1,2.95,Noun,1,10.06,2.44,5.6,2.322,9,,,
,,,,,1,,,,,,A1_B1,medley,,R_20NndKuy24lEi5t,MainVerb,2022-06-13_16h02.54.243,SCT_verb,2021.2.3,Win32,144.0092166,,,,,0,70,70,192,1,60,A2_B1,2.863636364,Noun,0.97,10,2.93,6.6,1.518,6,,,
,,,,,1,,,,,,A2_B1,openness,,R_20NndKuy24lEi5t,MainVerb,2022-06-13_16h02.54.243,SCT_verb,2021.2.3,Win32,144.0092166,,,,,0,71,71,126,1,40,A1_B2,5.090909091,Noun,1,8.68,1.9,6.52,1.322,8,,,
,,,,k,1,,,,,,A1_B2,assess,k,R_20NndKuy24lEi5t,MainVerb,2022-06-13_16h02.54.243,SCT_verb,2021.2.3,Win32,144.0092166,1.2837,,,,0,72,72,17,1,6,A2_B2,2.652173913,Verb,1,11.37,2.26,5.84,1.924,6,,,
,,,,,1,,,,,,A2_B1,patriot,,R_20NndKuy24lEi5t,MainVerb,2022-06-13_16h02.54.243,SCT_verb,2021.2.3,Win32,144.0092166,,,,,0,73,73,82,1,26,A1_B2,5.695652174,Noun,0.97,10.14,3.36,5.8,2.127,7,,,
,,,,,1,,,,,,A2_B1,community,,R_20NndKuy24lEi5t,MainVerb,2022-06-13_16h02.54.243,SCT_verb,2021.2.3,Win32,144.0092166,,,,,0,74,74,38,1,12,A1_B2,6.458333333,Noun,1,7.28,3.52,6.09,3.172,9,,,
,,,,k,1,,,,,,A2_B2,commandeer,k,R_20NndKuy24lEi5t,MainVerb,2022-06-13_16h02.54.243,SCT_verb,2021.2.3,Win32,144.0092166,1.8611,,,,0,75,75,79,1,24,A1_B1,5.55,Verb,1,11.88,3.7,4.43,1.462,10,,,
,,,,,1,,,,,,A1_B1,carpentry,,R_20NndKuy24lEi5t,MainVerb,2022-06-13_16h02.54.243,SCT_verb,2021.2.3,Win32,144.0092166,,,,,0,76,76,8,1,4,A1_B2,2.857142857,Noun,1,9.83,3.48,4.87,1.38,9,,,
,,,,k,1,,,,,,A1_B2,retain,k,R_20NndKuy24lEi5t,MainVerb,2022-06-13_16h02.54.243,SCT_verb,2021.2.3,Win32,144.0092166,1.3664,,,,0,77,77,41,1,14,A1_B2,2.608695652,Verb,1,11.32,2.32,6.25,2.086,6,,,
,,,,,1,,,,,,A2_B1,heroism,,R_20NndKuy24lEi5t,MainVerb,2022-06-13_16h02.54.243,SCT_verb,2021.2.3,Win32,144.0092166,,,,,0,78,78,194,1,60,A2_B1,6.086956522,Noun,1,9.55,2.67,7.05,1.756,7,,,
,,,,k,1,,,,,,A2_B2,confess,k,R_20NndKuy24lEi5t,MainVerb,2022-06-13_16h02.54.243,SCT_verb,2021.2.3,Win32,144.0092166,0.6783,,,,0,79,79,87,1,27,A2_B2,5.5,Verb,1,7.11,2.57,4.85,2.908,7,,,
,,,,k,1,,,,,,A1_B2,replace,k,R_20NndKuy24lEi5t,MainVerb,2022-06-13_16h02.54.243,SCT_verb,2021.2.3,Win32,144.0092166,0.5786,,,,0,80,80,93,1,30,A2_B2,2.541666667,Verb,1,7.2,3,5.56,2.834,7,,,
,,,,k,0,,,,,,A2_B1,labor,,R_20NndKuy24lEi5t,MainVerb,2022-06-13_16h02.54.243,SCT_verb,2021.2.3,Win32,144.0092166,2.0401,,,,0,81,81,26,1,8,A2_B1,5.523809524,Noun,0.97,8.28,3.08,4.74,2.794,5,,,
,,,,,1,,,,,,A2_B1,manhood,,R_20NndKuy24lEi5t,MainVerb,2022-06-13_16h02.54.243,SCT_verb,2021.2.3,Win32,144.0092166,,,,,0,82,82,178,1,55,A2_B1,5.25,Noun,1,12.95,2.59,6.5,2.167,7,,,
,,,,k,1,,,,,,A2_B2,befriend,k,R_20NndKuy24lEi5t,MainVerb,2022-06-13_16h02.54.243,SCT_verb,2021.2.3,Win32,144.0092166,1.0041,,,,0,83,83,127,1,40,A1_B2,6.608695652,Verb,1,8.5,2.36,7.14,1.362,8,,,
,,,,,1,,,,,,A2_B1,monogamy,,R_20NndKuy24lEi5t,MainVerb,2022-06-13_16h02.54.243,SCT_verb,2021.2.3,Win32,144.0092166,,,,,0,84,84,262,1,7,A1_B1,5.6,Noun,1,13.06,1.7,6.43,1.672,8,,,
,,,,,1,,,,,,A1_B1,option,,R_20NndKuy24lEi5t,MainVerb,2022-06-13_16h02.54.243,SCT_verb,2021.2.3,Win32,144.0092166,,,,,0,85,85,220,1,68,A2_B2,2.791666667,Noun,1,8.79,2.39,6.37,2.868,6,,,
,,,,k,1,,,,,,A2_B2,motivate,k,R_20NndKuy24lEi5t,MainVerb,2022-06-13_16h02.54.243,SCT_verb,2021.2.3,Win32,144.0092166,0.929,,,,0,86,86,119,1,37,A2_B1,5.260869565,Verb,1,9.9,2.07,6.05,1.74,8,,,
,,,,,1,,,,,,A1_B1,variation,,R_20NndKuy24lEi5t,MainVerb,2022-06-13_16h02.54.243,SCT_verb,2021.2.3,Win32,144.0092166,,,,,0,87,87,20,1,7,A2_B1,2.090909091,Noun,1,10.11,2.46,5.53,1.813,9,,,
,,,,k,1,,,,,,A1_B2,derive,k,R_20NndKuy24lEi5t,MainVerb,2022-06-13_16h02.54.243,SCT_verb,2021.2.3,Win32,144.0092166,1.3371,,,,0,88,88,157,1,49,A2_B2,2.941176471,Verb,1,12,2,4.72,1.556,6,,,
,,,,k,1,,,,,,A1_B2,classify,k,R_20NndKuy24lEi5t,MainVerb,2022-06-13_16h02.54.243,SCT_verb,2021.2.3,Win32,144.0092166,0.7781,,,,0,89,89,69,1,22,A2_B2,2.8,Verb,1,9.65,2.41,5.6,1.518,8,,,
,,,,,1,,,,,,A1_B1,alignment,,R_20NndKuy24lEi5t,MainVerb,2022-06-13_16h02.54.243,SCT_verb,2021.2.3,Win32,144.0092166,,,,,0,90,90,64,1,21,A2_B1,2.826086957,Noun,1,11.76,3.26,6,1.833,9,,,
,,,,k,1,,,,,,A1_B2,lighten,k,R_20NndKuy24lEi5t,MainVerb,2022-06-13_16h02.54.243,SCT_verb,2021.2.3,Win32,144.0092166,1.0583,,,,0,91,91,145,1,45,A2_B2,2.636363636,Verb,1,7.95,2.93,6.21,2.48,7,,,
,,,,k,1,,,,,,A1_B2,decipher,k,R_20NndKuy24lEi5t,MainVerb,2022-06-13_16h02.54.243,SCT_verb,2021.2.3,Win32,144.0092166,0.7293,,,space,0,92,92,109,1,35,A1_B2,2.947368421,Verb,1,10.84,2.83,5.09,1.944,8,195.7611,,
,,,,,1,,,,,,A2_B1,immigration,,R_20NndKuy24lEi5t,MainVerb,2022-06-13_16h02.54.243,SCT_verb,2021.2.3,Win32,144.0092166,,,,,0,93,93,174,1,54,A2_B1,6.090909091,Noun,0.98,12.63,3.03,4,2.111,11,,,
,,,,k,1,,,,,,A2_B2,bicker,k,R_20NndKuy24lEi5t,MainVerb,2022-06-13_16h02.54.243,SCT_verb,2021.2.3,Win32,144.0092166,1.2033,,,,0,94,94,151,1,46,A2_B2,5.545454545,Verb,1,8.94,3.15,2.81,1.415,6,,,
,,,,k,1,,,,,,A1_B2,visualize,k,R_20NndKuy24lEi5t,MainVerb,2022-06-13_16h02.54.243,SCT_verb,2021.2.3,Win32,144.0092166,0.7838,,,,0,95,95,49,1,17,A2_B1,2.458333333,Verb,1,9.88,2.45,6.58,1.949,9,,,
,,,,k,1,,,,,,A2_B2,advise,k,R_20NndKuy24lEi5t,MainVerb,2022-06-13_16h02.54.243,SCT_verb,2021.2.3,Win32,144.0092166,0.5433,,,,0,96,96,171,1,53,A1_B1,5.590909091,Verb,1,8.89,2.03,5.44,2.795,6,,,
,,,,,1,,,,,,A2_B1,corruption,,R_20NndKuy24lEi5t,MainVerb,2022-06-13_16h02.54.243,SCT_verb,2021.2.3,Win32,144.0092166,,,,,0,97,97,2,1,1,A2_B1,5.5,Noun,1,11.17,2.39,3,2.34,10,,,
,,,,,1,,,,,,A1_B1,distortion,,R_20NndKuy24lEi5t,MainVerb,2022-06-13_16h02.54.243,SCT_verb,2021.2.3,Win32,144.0092166,,,,,0,98,98,0,1,1,A2_B1,2.863636364,Noun,1,11.47,2.3,3.5,1.785,10,,,
,,,,,1,,,,,,A1_B1,chapter,,R_20NndKuy24lEi5t,MainVerb,2022-06-13_16h02.54.243,SCT_verb,2021.2.3,Win32,144.0092166,,,,,0,99,99,92,1,30,A2_B2,1.833333333,Noun,1,6.42,3.43,5.7,2.782,7,,,
,,,,k,1,,,,,,A2_B2,advertise,k,R_20NndKuy24lEi5t,MainVerb,2022-06-13_16h02.54.243,SCT_verb,2021.2.3,Win32,144.0092166,1.4241,,,,0,100,100,11,1,4,A1_B2,5.434782609,Verb,1,9.63,2.81,5.16,1.929,9,,,
,,,,k,1,,,,,,A2_B2,propose,k,R_20NndKuy24lEi5t,MainVerb,2022-06-13_16h02.54.243,SCT_verb,2021.2.3,Win32,144.0092166,0.5875,,,,0,101,101,219,1,67,A2_B1,5.541666667,Verb,1,9,2.19,6.26,2.822,7,,,
,,,,,1,,,,,,A1_B1,dynamo,,R_20NndKuy24lEi5t,MainVerb,2022-06-13_16h02.54.243,SCT_verb,2021.2.3,Win32,144.0092166,,,,,0,102,102,176,1,55,A2_B1,2.333333333,Noun,1,12.32,2.71,6.21,1.431,6,,,
,,,,k,1,,,,,,A1_B2,scramble,k,R_20NndKuy24lEi5t,MainVerb,2022-06-13_16h02.54.243,SCT_verb,2021.2.3,Win32,144.0092166,1.3247,,,,0,103,103,9,1,4,A1_B2,2.7,Verb,0.97,8.83,3.31,5.21,2.093,8,,,
,,,,k,1,,,,,,A1_B2,unhook,k,R_20NndKuy24lEi5t,MainVerb,2022-06-13_16h02.54.243,SCT_verb,2021.2.3,Win32,144.0092166,0.7041,,,,0,104,104,225,1,69,A1_B2,2.136363636,Verb,1,7.22,3.34,4.55,1.653,6,,,
,,,,k,1,,,,,,A2_B2,reconcile,k,R_20NndKuy24lEi5t,MainVerb,2022-06-13_16h02.54.243,SCT_verb,2021.2.3,Win32,144.0092166,0.7768,,,,0,105,105,51,1,17,A2_B1,5.55,Verb,1,10.47,1.79,6.84,1.771,9,,,
,,,,k,1,,,,,,A2_B2,persuade,k,R_20NndKuy24lEi5t,MainVerb,2022-06-13_16h02.54.243,SCT_verb,2021.2.3,Win32,144.0092166,0.7138,,,,0,106,106,167,1,52,A1_B1,5.173913043,Verb,1,10.79,2.07,5.67,2.514,8,,,
,,,,,1,,,,,,A2_B1,bribery,,R_20NndKuy24lEi5t,MainVerb,2022-06-13_16h02.54.243,SCT_verb,2021.2.3,Win32,144.0092166,,,,,0,107,107,34,1,10,A2_B2,5.761904762,Noun,1,10.65,2.89,3.59,1.845,7,,,
,,,,k,1,,,,,,A1_B2,decompose,k,R_20NndKuy24lEi5t,MainVerb,2022-06-13_16h02.54.243,SCT_verb,2021.2.3,Win32,144.0092166,1.7376,,,,0,108,108,113,1,36,A1_B2,1.826086957,Verb,1,10.48,3,2.42,1.398,9,,,
,,,,,1,,,,,,A1_B1,fortnight,,R_20NndKuy24lEi5t,MainVerb,2022-06-13_16h02.54.243,SCT_verb,2021.2.3,Win32,144.0092166,,,,,0,109,109,60,1,20,A2_B1,2.347826087,Noun,1,10.53,2.71,5.5,1.672,9,,,
,,,,,1,,,,,,A1_B1,drawback,,R_20NndKuy24lEi5t,MainVerb,2022-06-13_16h02.54.243,SCT_verb,2021.2.3,Win32,144.0092166,,,,,0,110,110,128,1,41,A1_B1,2.708333333,Noun,1,9.63,2.52,4.38,1.518,8,,,
,,,,k,0,,,,,,A1_B1,detail,,R_20NndKuy24lEi5t,MainVerb,2022-06-13_16h02.54.243,SCT_verb,2021.2.3,Win32,144.0092166,1.4253,,,,0,111,111,168,1,53,A1_B1,2.826086957,Noun,0.96,9.79,2.5,5.67,2.996,6,,,
,,,,k,1,,,,,,A1_B2,rearrange,k,R_20NndKuy24lEi5t,MainVerb,2022-06-13_16h02.54.243,SCT_verb,2021.2.3,Win32,144.0092166,0.645,,,,0,112,112,237,1,1,A2_B1,2.727272727,Verb,1,8.11,3.26,5.52,1.949,9,,,
,,,,,1,,,,,,A2_B1,flirtation,,R_20NndKuy24lEi5t,MainVerb,2022-06-13_16h02.54.243,SCT_verb,2021.2.3,Win32,144.0092166,,,,,0,113,113,22,1,7,A2_B1,5.391304348,Noun,1,10.53,2.19,5.78,1.568,10,,,
,,,,,1,,,,,,A2_B1,uprising,,R_20NndKuy24lEi5t,MainVerb,2022-06-13_16h02.54.243,SCT_verb,2021.2.3,Win32,144.0092166,,,,,0,114,114,14,1,5,A2_B1,5.285714286,Noun,1,11.17,2.41,4.33,1.778,8,,,
,,,,k,1,,,,,,A2_B2,entrust,k,R_20NndKuy24lEi5t,MainVerb,2022-06-13_16h02.54.243,SCT_verb,2021.2.3,Win32,144.0092166,1.2595,,,,0,115,115,19,1,6,A2_B2,5.782608696,Verb,1,11.89,2.16,6.32,1.58,7,,,
,,,,,1,,,,,,A2_B1,persuasion,,R_20NndKuy24lEi5t,MainVerb,2022-06-13_16h02.54.243,SCT_verb,2021.2.3,Win32,144.0092166,,,,,0,116,116,166,1,52,A1_B1,5.083333333,Noun,1,10.9,1.9,5.67,2.004,10,,,
,,,,k,0,,,,,,A1_B1,reference,,R_20NndKuy24lEi5t,MainVerb,2022-06-13_16h02.54.243,SCT_verb,2021.2.3,Win32,144.0092166,1.2587,,,,0,117,117,180,1,57,A2_B1,2.761904762,Noun,0.95,8.67,2.38,5.63,2.636,9,,,
,,,,k,1,,,,,,A1_B2,soften,k,R_20NndKuy24lEi5t,MainVerb,2022-06-13_16h02.54.243,SCT_verb,2021.2.3,Win32,144.0092166,0.6813,,,,0,118,118,221,1,68,A2_B2,2.583333333,Verb,1,7.37,2.57,6.57,1.887,6,,,
,,,,,1,,,,,,A1_B1,migraine,,R_20NndKuy24lEi5t,MainVerb,2022-06-13_16h02.54.243,SCT_verb,2021.2.3,Win32,144.0092166,,,,,0,119,119,112,1,36,A1_B2,2.956521739,Noun,0.93,10,3.2,2.68,1.982,8,,,
,,,,k,1,,,,,,A2_B2,inhabit,k,R_20NndKuy24lEi5t,MainVerb,2022-06-13_16h02.54.243,SCT_verb,2021.2.3,Win32,144.0092166,0.7352,,,,0,120,120,143,1,44,A2_B1,5.130434783,Verb,1,12.22,3.21,5.38,1.532,7,,,
,,,,,1,,,,,,A1_B1,ventilation,,R_20NndKuy24lEi5t,MainVerb,2022-06-13_16h02.54.243,SCT_verb,2021.2.3,Win32,144.0092166,,,,,0,121,121,188,1,59,A1_B1,1.65,Noun,1,10.39,3.48,6.44,2.045,11,,,
,,,,k,0,,,,,,A1_B1,compound,,R_20NndKuy24lEi5t,MainVerb,2022-06-13_16h02.54.243,SCT_verb,2021.2.3,Win32,144.0092166,1.6066,,,,0,122,122,152,1,47,A2_B1,2.65,Noun,0.91,11.26,3.03,5.62,2.559,8,,,
,,,,k,1,,,,,,A1_B2,install,k,R_20NndKuy24lEi5t,MainVerb,2022-06-13_16h02.54.243,SCT_verb,2021.2.3,Win32,144.0092166,0.676,,,,0,123,123,101,1,33,A1_B1,2.571428571,Verb,1,10.14,3.19,5.95,2.143,7,,,
,,,,,1,,,,,,A1_B1,ingredient,,R_20NndKuy24lEi5t,MainVerb,2022-06-13_16h02.54.243,SCT_verb,2021.2.3,Win32,144.0092166,,,,,0,124,124,36,1,12,A1_B2,1.736842105,Noun,1,7.85,3.84,5.86,2.127,10,,,
,,,,,1,,,,,,A1_B1,anomaly,,R_20NndKuy24lEi5t,MainVerb,2022-06-13_16h02.54.243,SCT_verb,2021.2.3,Win32,144.0092166,,,,,0,125,125,156,1,49,A2_B2,2.111111111,Noun,1,12.44,1.79,4.84,1.806,7,,,
,,,,k,1,,,,,,A1_B2,make,k,R_20NndKuy24lEi5t,MainVerb,2022-06-13_16h02.54.243,SCT_verb,2021.2.3,Win32,144.0092166,1.3001,,,,0,126,126,201,1,62,A1_B1,2.391304348,Verb,1,4.68,2.67,6.09,4.85,4,,,
,,,,,1,,,,,,A2_B1,job,,R_20NndKuy24lEi5t,MainVerb,2022-06-13_16h02.54.243,SCT_verb,2021.2.3,Win32,144.0092166,,,,,0,127,127,202,1,62,A1_B1,5.695652174,Noun,1,5.39,3.19,5.64,4.324,3,,,
,,,,k,1,,,,,,A1_B2,finalize,k,R_20NndKuy24lEi5t,MainVerb,2022-06-13_16h02.54.243,SCT_verb,2021.2.3,Win32,144.0092166,1.324,,,,0,128,128,197,1,61,A1_B2,2.545454545,Verb,1,10.3,2.14,5.6,1.431,8,,,
,,,,,1,,,,,,A1_B1,vantage,,R_20NndKuy24lEi5t,MainVerb,2022-06-13_16h02.54.243,SCT_verb,2021.2.3,Win32,144.0092166,,,,,0,129,129,260,1,7,A1_B1,2.65,Noun,1,12.1,1.93,5.95,1.602,7,,,
,,,,k,1,,,,,,A2_B2,remarry,k,R_20NndKuy24lEi5t,MainVerb,2022-06-13_16h02.54.243,SCT_verb,2021.2.3,Win32,144.0092166,1.6049,,,,0,130,130,71,1,22,A2_B2,5.652173913,Verb,1,8.65,2.72,5.52,1.653,7,,,
,,,,k,1,,,,,,A1_B2,freshen,k,R_20NndKuy24lEi5t,MainVerb,2022-06-13_16h02.54.243,SCT_verb,2021.2.3,Win32,144.0092166,0.6474,,,,0,131,131,57,1,19,A1_B2,2.333333333,Verb,1,8.84,2.17,6.56,2.121,7,,,
,,,,,1,,,,,,A1_B1,voucher,,R_20NndKuy24lEi5t,MainVerb,2022-06-13_16h02.54.243,SCT_verb,2021.2.3,Win32,144.0092166,,,,,0,132,132,80,1,26,A1_B2,2.4,Noun,1,10.3,3.81,5.67,1.672,7,,,
,,,,,1,,,,,,A2_B1,diversity,,R_20NndKuy24lEi5t,MainVerb,2022-06-13_16h02.54.243,SCT_verb,2021.2.3,Win32,144.0092166,,,,,0,133,133,246,1,3,A2_B1,5.875,Noun,1,10.79,2.28,6.14,1.756,9,,,
,,,,k,1,,,,,,A2_B2,invade,k,R_20NndKuy24lEi5t,MainVerb,2022-06-13_16h02.54.243,SCT_verb,2021.2.3,Win32,144.0092166,1.2708,,,,0,134,134,107,1,34,A1_B2,5.818181818,Verb,1,9.39,3.28,3.32,2.196,6,,,
,,,,k,1,,,,,,A1_B2,deteriorate,k,R_20NndKuy24lEi5t,MainVerb,2022-06-13_16h02.54.243,SCT_verb,2021.2.3,Win32,144.0092166,1.3063,,,,0,135,135,173,1,54,A2_B1,2.428571429,Verb,1,11.78,3,3.64,1.447,11,,,
,,,,k,1,,,,,,A1_B2,contain,k,R_20NndKuy24lEi5t,MainVerb,2022-06-13_16h02.54.243,SCT_verb,2021.2.3,Win32,144.0092166,1.0046,,,,0,136,136,85,1,27,A2_B2,2.52,Verb,1,7.88,2.74,5,2.493,7,,,
,,,,k,1,,,,,,A2_B2,taunt,k,R_20NndKuy24lEi5t,MainVerb,2022-06-13_16h02.54.243,SCT_verb,2021.2.3,Win32,144.0092166,0.6197,,,,0,137,137,207,1,63,A2_B2,5.526315789,Verb,0.88,8.06,2.93,3.4,1.518,5,,,
,,,,k,1,,,,,,A2_B2,participate,k,R_20NndKuy24lEi5t,MainVerb,2022-06-13_16h02.54.243,SCT_verb,2021.2.3,Win32,144.0092166,0.6785,,,,0,138,138,239,1,1,A2_B1,5.869565217,Verb,1,7.05,2.59,5.5,2.352,11,,,
,,,,k,1,,,,,,A1_B2,radiate,k,R_20NndKuy24lEi5t,MainVerb,2022-06-13_16h02.54.243,SCT_verb,2021.2.3,Win32,144.0092166,0.7706,,,,0,139,139,177,1,55,A2_B1,2.619047619,Verb,0.89,12.5,2.93,6.9,1.447,7,,,
,,,,,1,,,,,,A2_B1,environment,,R_20NndKuy24lEi5t,MainVerb,2022-06-13_16h02.54.243,SCT_verb,2021.2.3,Win32,144.0092166,,,,,0,140,140,190,1,59,A1_B1,5.347826087,Noun,1,9.85,3.74,6.7,2.815,11,,,
,,,,,0,,,,,,A2_B2,coexist,k,R_20NndKuy24lEi5t,MainVerb,2022-06-13_16h02.54.243,SCT_verb,2021.2.3,Win32,144.0092166,,,,,0,141,141,155,1,47,A2_B1,5.347826087,Verb,1,11.56,2.25,5.95,1.415,7,,,
,,,,,1,,,,,,A1_B1,standstill,,R_20NndKuy24lEi5t,MainVerb,2022-06-13_16h02.54.243,SCT_verb,2021.2.3,Win32,144.0092166,,,,,0,142,142,212,1,66,A1_B1,2.863636364,Noun,1,10,2.39,4.74,1.431,10,,,
,,,,,1,,,,,,A1_B1,simplicity,,R_20NndKuy24lEi5t,MainVerb,2022-06-13_16h02.54.243,SCT_verb,2021.2.3,Win32,144.0092166,,,,,0,143,143,124,1,40,A1_B2,2.772727273,Noun,1,9.89,1.96,7.05,1.845,10,,,
,,,,k,1,,,,,,A1_B2,extend,k,R_20NndKuy24lEi5t,MainVerb,2022-06-13_16h02.54.243,SCT_verb,2021.2.3,Win32,144.0092166,1.2154,,,,0,144,144,169,1,53,A1_B1,2.909090909,Verb,1,9.89,2.93,5.86,2.516,6,,,
,,,,k,1,,,,,,A1_B2,maximize,k,R_20NndKuy24lEi5t,MainVerb,2022-06-13_16h02.54.243,SCT_verb,2021.2.3,Win32,144.0092166,1.2399,,,,0,145,145,245,1,3,A2_B1,2.916666667,Verb,1,10.58,1.79,6.2,1.663,8,,,
,,,,,1,,,,,,A2_B1,seminar,,R_20NndKuy24lEi5t,MainVerb,2022-06-13_16h02.54.243,SCT_verb,2021.2.3,Win32,144.0092166,,,,,0,146,146,90,1,28,A2_B2,5.368421053,Noun,1,11.8,3.48,5.2,2.338,7,,,
,,,,k,1,,,,,,A1_B2,absorb,k,R_20NndKuy24lEi5t,MainVerb,2022-06-13_16h02.54.243,SCT_verb,2021.2.3,Win32,144.0092166,0.5958,,,,0,147,147,29,1,9,A1_B1,2.166666667,Verb,1,8.83,3.11,5.5,2.009,6,,,
,,,,,1,,,,,,A1_B1,geology,,R_20NndKuy24lEi5t,MainVerb,2022-06-13_16h02.54.243,SCT_verb,2021.2.3,Win32,144.0092166,,,,,0,148,148,100,1,33,A1_B1,2.708333333,Noun,1,10,2.9,5.89,1.681,7,,,
,,,,,1,,,,,,A1_B1,dioxide,,R_20NndKuy24lEi5t,MainVerb,2022-06-13_16h02.54.243,SCT_verb,2021.2.3,Win32,144.0092166,,,,,0,149,149,12,1,5,A2_B1,1.363636364,Noun,1,11.4,2.81,4.58,1.724,7,,,
,,,,k,1,,,,,,A1_B2,minimize,k,R_20NndKuy24lEi5t,MainVerb,2022-06-13_16h02.54.243,SCT_verb,2021.2.3,Win32,144.0092166,1.7499,,,,0,150,150,53,1,18,A2_B2,2.625,Verb,1,10.89,2.37,5.16,1.74,8,,,
,,,,,1,,,,,,A1_B1,summary,,R_20NndKuy24lEi5t,MainVerb,2022-06-13_16h02.54.243,SCT_verb,2021.2.3,Win32,144.0092166,,,,,0,151,151,224,1,69,A1_B2,2.523809524,Noun,1,8,3.03,5.05,1.935,7,,,
,,,,,1,,,,,,A2_B1,stardom,,R_20NndKuy24lEi5t,MainVerb,2022-06-13_16h02.54.243,SCT_verb,2021.2.3,Win32,144.0092166,,,,,0,152,152,118,1,37,A2_B1,5.238095238,Noun,1,10.06,2.26,5.85,1.505,7,,,
,,,,k,1,,,,,,A1_B2,generate,k,R_20NndKuy24lEi5t,MainVerb,2022-06-13_16h02.54.243,SCT_verb,2021.2.3,Win32,144.0092166,0.81,,,,0,153,153,73,1,23,A1_B1,2.636363636,Verb,1,10.78,2.23,6.14,2.097,8,,,
,,,,k,1,,,,,,A2_B2,mingle,k,R_20NndKuy24lEi5t,MainVerb,2022-06-13_16h02.54.243,SCT_verb,2021.2.3,Win32,144.0092166,0.6846,,,,0,154,154,83,1,26,A1_B2,5.391304348,Verb,1,10.29,3.17,5.21,2.14,6,,,
,,,,,1,,,,,,A1_B1,fraction,,R_20NndKuy24lEi5t,MainVerb,2022-06-13_16h02.54.243,SCT_verb,2021.2.3,Win32,144.0092166,,,,,0,155,155,88,1,28,A2_B2,1.916666667,Noun,1,10.06,3.1,5.21,2.021,8,,,
,,,,k,1,,,,,,A2_B2,congratulate,k,R_20NndKuy24lEi5t,MainVerb,2022-06-13_16h02.54.243,SCT_verb,2021.2.3,Win32,144.0092166,1.2999,,,,0,156,156,191,1,59,A1_B1,5.76,Verb,1,9.57,3.04,6.33,2.555,12,,,
,,,,k,1,,,,,,A2_B2,lend,k,R_20NndKuy24lEi5t,MainVerb,2022-06-13_16h02.54.243,SCT_verb,2021.2.3,Win32,144.0092166,0.674,,,,0,157,157,27,1,8,A2_B1,5,Verb,1,8.45,3.07,4.95,2.775,4,,,
,,,,k,1,,,,,,A2_B2,impress,k,R_20NndKuy24lEi5t,MainVerb,2022-06-13_16h02.54.243,SCT_verb,2021.2.3,Win32,144.0092166,0.6849,,,,0,158,158,63,1,20,A2_B1,5.333333333,Verb,1,10.17,2.07,6.25,2.717,7,,,
,,,,k,1,,,,,,A1_B2,calculate,k,R_20NndKuy24lEi5t,MainVerb,2022-06-13_16h02.54.243,SCT_verb,2021.2.3,Win32,144.0092166,0.642,,,,0,159,159,97,1,32,A2_B1,2.368421053,Verb,1,9.26,2.74,4.89,2.029,9,,,
,,,,,1,,,,,,A1_B1,precedent,,R_20NndKuy24lEi5t,MainVerb,2022-06-13_16h02.54.243,SCT_verb,2021.2.3,Win32,144.0092166,,,,,0,160,160,164,1,52,A1_B1,2.590909091,Noun,1,10.53,1.63,5.25,2.107,9,,,
,,,,,1,,,,,,A2_B1,aggressor,,R_20NndKuy24lEi5t,MainVerb,2022-06-13_16h02.54.243,SCT_verb,2021.2.3,Win32,144.0092166,,,,,0,161,161,114,1,36,A1_B2,5.086956522,Noun,1,11.47,3.29,2.8,1.477,9,,,
,,,,k,1,,,,,,A2_B2,consult,k,R_20NndKuy24lEi5t,MainVerb,2022-06-13_16h02.54.243,SCT_verb,2021.2.3,Win32,144.0092166,0.7071,,,,0,162,162,91,1,28,A2_B2,6.318181818,Verb,1,10.95,3.04,5.41,2.456,7,,,
,,,,k,1,,,,,,A2_B2,wrestle,k,R_20NndKuy24lEi5t,MainVerb,2022-06-13_16h02.54.243,SCT_verb,2021.2.3,Win32,144.0092166,0.6866,,,,0,163,163,231,1,70,A2_B1,5.04,Verb,0.91,5,4.33,4.53,2.248,7,,,
,,,,,1,,,,,,A1_B1,metaphor,,R_20NndKuy24lEi5t,MainVerb,2022-06-13_16h02.54.243,SCT_verb,2021.2.3,Win32,144.0092166,,,,,0,164,164,244,1,3,A2_B1,2.652173913,Noun,1,11.59,1.94,6.11,2.299,8,,,
,,,,,1,,,,,,A2_B1,humility,,R_20NndKuy24lEi5t,MainVerb,2022-06-13_16h02.54.243,SCT_verb,2021.2.3,Win32,144.0092166,,,,,0,165,165,54,1,18,A2_B2,5.375,Noun,1,10.21,1.75,5.65,2.09,8,,,
,,,,,1,,,,,,A2_B1,career,,R_20NndKuy24lEi5t,MainVerb,2022-06-13_16h02.54.243,SCT_verb,2021.2.3,Win32,144.0092166,,,,,0,166,166,170,1,53,A1_B1,5.24,Noun,0.99,9.95,2.54,6.11,3.363,6,,,
,,,,,1,,,,,,A1_B1,jiffy,,R_20NndKuy24lEi5t,MainVerb,2022-06-13_16h02.54.243,SCT_verb,2021.2.3,Win32,144.0092166,,,,,0,167,167,160,1,50,A1_B2,2.722222222,Noun,1,9.33,2.33,6.09,1.909,5,,,
,,,,k,0,,,,,,A1_B1,excavation,,R_20NndKuy24lEi5t,MainVerb,2022-06-13_16h02.54.243,SCT_verb,2021.2.3,Win32,144.0092166,1.4122,,,,0,168,168,76,1,24,A1_B1,2.565217391,Noun,1,10.89,3.23,4.89,1.518,10,,,
,,,,k,1,,,,,,A2_B2,liberate,k,R_20NndKuy24lEi5t,MainVerb,2022-06-13_16h02.54.243,SCT_verb,2021.2.3,Win32,144.0092166,0.7905,,,,0,169,169,75,1,23,A1_B1,5.217391304,Verb,1,11.75,2.29,5.79,1.778,8,,,
,,,,k,1,,,,,,A1_B2,pronounce,k,R_20NndKuy24lEi5t,MainVerb,2022-06-13_16h02.54.243,SCT_verb,2021.2.3,Win32,144.0092166,1.159,,,,0,170,170,217,1,67,A2_B1,2.958333333,Verb,1,8.42,2.63,5.61,2.521,9,,,
,,,,k,1,,,,,,A2_B2,accompany,k,R_20NndKuy24lEi5t,MainVerb,2022-06-13_16h02.54.243,SCT_verb,2021.2.3,Win32,144.0092166,0.7789,,,,0,171,171,67,1,21,A2_B1,5.782608696,Verb,1,10.75,3.07,5.47,2.386,9,,,
,,,,k,1,,,,,,A2_B2,avenge,k,R_20NndKuy24lEi5t,MainVerb,2022-06-13_16h02.54.243,SCT_verb,2021.2.3,Win32,144.0092166,0.8073,,,,0,172,172,235,1,71,A1_B1,5.15,Verb,1,10.68,2.07,4.05,2.19,6,,,
,,,,,1,,,,,,A2_B1,hierarchy,,R_20NndKuy24lEi5t,MainVerb,2022-06-13_16h02.54.243,SCT_verb,2021.2.3,Win32,144.0092166,,,,,0,173,173,110,1,35,A1_B2,6.208333333,Noun,1,11.11,2.59,4.95,1.518,9,,,
,,,,k,1,,,,,,A2_B2,compete,k,R_20NndKuy24lEi5t,MainVerb,2022-06-13_16h02.54.243,SCT_verb,2021.2.3,Win32,144.0092166,1.7962,,,,0,174,174,251,1,4,A1_B1,5.428571429,Verb,1,6.94,2.57,5.35,2.636,7,,,
,,,,k,1,,,,,,A1_B2,discontinue,k,R_20NndKuy24lEi5t,MainVerb,2022-06-13_16h02.54.243,SCT_verb,2021.2.3,Win32,144.0092166,1.1101,,,,0,175,175,121,1,39,A2_B2,2.227272727,Verb,1,11.63,2.5,3.94,1.544,11,,,
,,,,k,1,,,,,,A2_B2,tell,k,R_20NndKuy24lEi5t,MainVerb,2022-06-13_16h02.54.243,SCT_verb,2021.2.3,Win32,144.0092166,0.7589,,,,0,176,176,203,1,62,A1_B1,5.238095238,Verb,1,4.26,2.9,5.27,4.944,4,,,
,,,,,1,,,,,,A2_B1,goodwill,,R_20NndKuy24lEi5t,MainVerb,2022-06-13_16h02.54.243,SCT_verb,2021.2.3,Win32,144.0092166,,,,,0,177,177,58,1,19,A1_B2,5.826086957,Noun,1,8.79,2.54,6.47,2.225,8,,,
,,,,k,1,,,,,,A2_B2,manipulate,k,R_20NndKuy24lEi5t,MainVerb,2022-06-13_16h02.54.243,SCT_verb,2021.2.3,Win32,144.0092166,0.6256,,,,0,178,178,3,1,1,A2_B1,5.47826087,Verb,1,11.1,2.55,3.21,2.25,10,,,
,,,,k,1,,,,,,A1_B2,maintain,k,R_20NndKuy24lEi5t,MainVerb,2022-06-13_16h02.54.243,SCT_verb,2021.2.3,Win32,144.0092166,0.5968,,,,0,179,179,181,1,57,A2_B1,2.684210526,Verb,1,9.94,2.32,6.29,2.821,8,,,
,,,,,1,,,,,,A2_B1,sinner,,R_20NndKuy24lEi5t,MainVerb,2022-06-13_16h02.54.243,SCT_verb,2021.2.3,Win32,144.0092166,,,,,0,180,180,206,1,63,A2_B2,5.818181818,Noun,0.92,7.35,3.07,3.25,2.104,6,,,
,,,,,1,,,,,,A1_B1,onset,,R_20NndKuy24lEi5t,MainVerb,2022-06-13_16h02.54.243,SCT_verb,2021.2.3,Win32,144.0092166,,,,,0,181,181,32,1,10,A2_B2,2.304347826,Noun,1,10.72,2.14,4.35,1.643,5,,,
,,,,,1,,,,,,A1_B1,impediment,,R_20NndKuy24lEi5t,MainVerb,2022-06-13_16h02.54.243,SCT_verb,2021.2.3,Win32,144.0092166,,,,,0,182,182,172,1,54,A2_B1,2.666666667,Noun,1,13.47,2.56,4.5,1.491,10,,,
,,,,,1,,,,,,A2_B1,artistry,,R_20NndKuy24lEi5t,MainVerb,2022-06-13_16h02.54.243,SCT_verb,2021.2.3,Win32,144.0092166,,,,,0,183,183,50,1,17,A2_B1,5.181818182,Noun,1,10.58,2,6.91,1.398,8,,,
,,,,k,1,,,,,,A2_B2,terrorize,k,R_20NndKuy24lEi5t,MainVerb,2022-06-13_16h02.54.243,SCT_verb,2021.2.3,Win32,144.0092166,0.7033,,,space,0,184,184,115,1,36,A1_B2,5.363636364,Verb,1,9.72,2.84,2.5,1.431,9,3.0883,,
,,,,,1,,,,,,A2_B1,warfare,,R_20NndKuy24lEi5t,MainVerb,2022-06-13_16h02.54.243,SCT_verb,2021.2.3,Win32,144.0092166,,,,,0,185,185,150,1,46,A2_B2,5.571428571,Noun,1,8.95,3.03,3.14,2.179,7,,,
,,,,,1,,,,,,A1_B1,outcome,,R_20NndKuy24lEi5t,MainVerb,2022-06-13_16h02.54.243,SCT_verb,2021.2.3,Win32,144.0092166,,,,,0,186,186,216,1,67,A2_B1,2.956521739,Noun,1,9.53,2.27,5.62,2.305,7,,,
,,,,k,1,,,,,,A2_B2,dominate,k,R_20NndKuy24lEi5t,MainVerb,2022-06-13_16h02.54.243,SCT_verb,2021.2.3,Win32,144.0092166,0.7002,,,,0,187,187,131,1,41,A1_B1,5.826086957,Verb,1,8.89,2.12,4.4,1.982,8,,,
,,,,k,1,,,,,,A2_B2,implore,k,R_20NndKuy24lEi5t,MainVerb,2022-06-13_16h02.54.243,SCT_verb,2021.2.3,Win32,144.0092166,0.7687,,,,0,188,188,159,1,49,A2_B2,5,Verb,1,12.44,1.61,4.47,1.732,7,,,
,,,,k,1,,,,,,A2_B2,reproduce,k,R_20NndKuy24lEi5t,MainVerb,2022-06-13_16h02.54.243,SCT_verb,2021.2.3,Win32,144.0092166,0.6755,,,,0,189,189,135,1,42,A1_B1,5.772727273,Verb,1,9.89,3.48,5.63,1.903,9,,,
,,,,k,1,,,,,,A1_B2,straddle,k,R_20NndKuy24lEi5t,MainVerb,2022-06-13_16h02.54.243,SCT_verb,2021.2.3,Win32,144.0092166,0.7015,,,,0,190,190,133,1,42,A1_B1,2.714285714,Verb,1,9.11,3.74,5.62,1.431,8,,,
,,,,k,1,,,,,,A1_B2,conjure,k,R_20NndKuy24lEi5t,MainVerb,2022-06-13_16h02.54.243,SCT_verb,2021.2.3,Win32,144.0092166,0.6269,,,,0,191,191,241,1,2,A2_B2,2.578947368,Verb,1,11.37,2.3,5.05,1.813,7,,,
,,,,k,1,,,,,,A1_B2,unravel,k,R_20NndKuy24lEi5t,MainVerb,2022-06-13_16h02.54.243,SCT_verb,2021.2.3,Win32,144.0092166,0.6934,,,,0,192,192,129,1,41,A1_B1,2.8,Verb,1,10.16,2.59,4.39,1.699,7,,,
,,,,k,1,,,,,,A1_B2,simplify,k,R_20NndKuy24lEi5t,MainVerb,2022-06-13_16h02.54.243,SCT_verb,2021.2.3,Win32,144.0092166,0.644,,,,0,193,193,209,1,65,A2_B1,2.761904762,Verb,1,8.53,1.89,6.35,1.672,8,,,
,,,,k,1,,,,,,A1_B2,straighten,k,R_20NndKuy24lEi5t,MainVerb,2022-06-13_16h02.54.243,SCT_verb,2021.2.3,Win32,144.0092166,0.6377,,,,0,194,194,37,1,12,A1_B2,2,Verb,1,7.63,3.72,6.26,2.757,10,,,
,,,,k,1,,,,,,A1_B2,confine,k,R_20NndKuy24lEi5t,MainVerb,2022-06-13_16h02.54.243,SCT_verb,2021.2.3,Win32,144.0092166,0.7072,,,,0,195,195,149,1,46,A2_B2,2.826086957,Verb,1,9.71,3.07,3,1.708,7,,,
,,,,,1,,,,,,A2_B1,management,,R_20NndKuy24lEi5t,MainVerb,2022-06-13_16h02.54.243,SCT_verb,2021.2.3,Win32,144.0092166,,,,,0,196,196,98,1,32,A2_B1,6.181818182,Noun,1,10.05,2.72,4.95,2.775,10,,,
,,,,,1,,,,,,A1_B1,size,,R_20NndKuy24lEi5t,MainVerb,2022-06-13_16h02.54.243,SCT_verb,2021.2.3,Win32,144.0092166,,,,,0,197,197,264,1,8,A1_B2,2.3,Noun,0.99,4.84,3.13,5.61,3.372,4,,,
,,,,k,1,,,,,,A2_B2,reunite,k,R_20NndKuy24lEi5t,MainVerb,2022-06-13_16h02.54.243,SCT_verb,2021.2.3,Win32,144.0092166,1.4597,,,,0,198,198,195,1,60,A2_B1,5.619047619,Verb,1,9.44,2.86,6.86,1.568,7,,,
,,,,,1,,,,,,A1_B1,timing,,R_20NndKuy24lEi5t,MainVerb,2022-06-13_16h02.54.243,SCT_verb,2021.2.3,Win32,144.0092166,,,,,0,199,199,136,1,43,A1_B2,2.714285714,Noun,0.96,8.84,2.86,5.67,2.884,6,,,
,,,,k,1,,,,,,A1_B2,recreate,k,R_20NndKuy24lEi5t,MainVerb,2022-06-13_16h02.54.243,SCT_verb,2021.2.3,Win32,144.0092166,0.7539,,,,0,200,200,117,1,37,A2_B1,2.894736842,Verb,1,9.21,2.41,6,1.732,8,,,
,,,,,1,,,,,,A1_B1,fireside,,R_20NndKuy24lEi5t,MainVerb,2022-06-13_16h02.54.243,SCT_verb,2021.2.3,Win32,144.0092166,,,,,0,201,201,132,1,42,A1_B1,2.095238095,Noun,1,9.39,3.84,6,1.322,8,,,
,,,,,1,,,,,,A2_B1,guidance,,R_20NndKuy24lEi5t,MainVerb,2022-06-13_16h02.54.243,SCT_verb,2021.2.3,Win32,144.0092166,,,,,0,202,202,218,1,67,A2_B1,5.136363636,Noun,1,8.95,2.46,5.95,2.576,8,,,
,,,,k,1,,,,,,A1_B2,expire,k,R_20NndKuy24lEi5t,MainVerb,2022-06-13_16h02.54.243,SCT_verb,2021.2.3,Win32,144.0092166,1.5301,,,,0,203,203,205,1,63,A2_B2,2,Verb,1,7.68,2.73,3.16,1.672,6,,,
,,,,k,1,,,,,,A2_B2,cooperate,k,R_20NndKuy24lEi5t,MainVerb,2022-06-13_16h02.54.243,SCT_verb,2021.2.3,Win32,144.0092166,0.7492,,,,0,204,204,211,1,65,A2_B1,6.541666667,Verb,1,8.28,1.87,6.39,2.724,9,,,
,,,,,1,,,,,,A2_B1,etiquette,,R_20NndKuy24lEi5t,MainVerb,2022-06-13_16h02.54.243,SCT_verb,2021.2.3,Win32,144.0092166,,,,,0,205,205,198,1,61,A1_B2,5.19047619,Noun,1,9.5,2.15,6,1.987,9,,,
,,,,,1,,,,,,A1_B1,volumes,,R_20NndKuy24lEi5t,MainVerb,2022-06-13_16h02.54.243,SCT_verb,2021.2.3,Win32,144.0092166,,,,,0,206,206,144,1,45,A2_B2,2,Noun,1,9.58,3.03,6,1.74,7,,,
,,,,,1,,,,,,A1_B1,allergy,,R_20NndKuy24lEi5t,MainVerb,2022-06-13_16h02.54.243,SCT_verb,2021.2.3,Win32,144.0092166,,,,,0,207,207,104,1,34,A1_B2,2.714285714,Noun,1,8.11,3.68,2.9,1.94,7,,,
,,,,,1,,,,,,A1_B1,shallows,,R_20NndKuy24lEi5t,MainVerb,2022-06-13_16h02.54.243,SCT_verb,2021.2.3,Win32,144.0092166,,,,,0,208,208,108,1,35,A1_B2,2.347826087,Noun,1,11.39,3.33,5.37,1.322,8,,,
,,,,,1,,,,,,A2_B1,excursion,,R_20NndKuy24lEi5t,MainVerb,2022-06-13_16h02.54.243,SCT_verb,2021.2.3,Win32,144.0092166,,,,,0,209,209,6,1,2,A2_B1,5.260869565,Noun,1,10.11,2.93,5.83,1.544,9,,,
,,,,,1,,,,,,A2_B1,morale,,R_20NndKuy24lEi5t,MainVerb,2022-06-13_16h02.54.243,SCT_verb,2021.2.3,Win32,144.0092166,,,,,0,210,210,162,1,50,A1_B2,5.608695652,Noun,1,10.62,1.85,5.95,2.324,6,,,
,,,,,1,,,,,,A1_B1,fluke,,R_20NndKuy24lEi5t,MainVerb,2022-06-13_16h02.54.243,SCT_verb,2021.2.3,Win32,144.0092166,,,,,0,211,211,232,1,71,A1_B1,2.526315789,Noun,1,10.1,2.34,4.3,1.954,5,,,
,,,,k,1,,,,,,A1_B2,reflect,k,R_20NndKuy24lEi5t,MainVerb,2022-06-13_16h02.54.243,SCT_verb,2021.2.3,Win32,144.0092166,2.1674,,,,0,212,212,61,1,20,A2_B1,2.909090909,Verb,1,9.89,2.81,6.1,2.33,7,,,
,,,,k,1,,,,,,A2_B2,connect,k,R_20NndKuy24lEi5t,MainVerb,2022-06-13_16h02.54.243,SCT_verb,2021.2.3,Win32,144.0092166,0.634,,,,0,213,213,255,1,5,A2_B1,5.708333333,Verb,1,7.58,2.88,6.61,2.693,7,,,
,,,,k,1,,,,,,A2_B2,banish,k,R_20NndKuy24lEi5t,MainVerb,2022-06-13_16h02.54.243,SCT_verb,2021.2.3,Win32,144.0092166,0.6029,,,,0,214,214,35,1,10,A2_B2,5.136363636,Verb,1,9.89,2.41,3.85,1.845,6,,,
,,,,,1,,,,,,A2_B1,monarchy,,R_20NndKuy24lEi5t,MainVerb,2022-06-13_16h02.54.243,SCT_verb,2021.2.3,Win32,144.0092166,,,,,0,215,215,186,1,58,A1_B2,5.409090909,Noun,1,10.44,2.55,3.29,1.544,8,,,
,,,,,1,,,,,,A2_B1,feedback,,R_20NndKuy24lEi5t,MainVerb,2022-06-13_16h02.54.243,SCT_verb,2021.2.3,Win32,144.0092166,,,,,0,216,216,62,1,20,A2_B1,5.545454545,Noun,1,10.7,2.48,5.91,2.149,8,,,
,,,,k,1,,,,,,A1_B2,reconstruct,k,R_20NndKuy24lEi5t,MainVerb,2022-06-13_16h02.54.243,SCT_verb,2021.2.3,Win32,144.0092166,1.3322,,,,0,217,217,65,1,21,A2_B1,2.681818182,Verb,1,10.63,3.2,5.7,1.771,11,,,
,,,,,1,,,,,,A2_B1,mutiny,,R_20NndKuy24lEi5t,MainVerb,2022-06-13_16h02.54.243,SCT_verb,2021.2.3,Win32,144.0092166,,,,,0,218,218,234,1,71,A1_B1,5.526315789,Noun,1,10.59,2.24,4.2,2.104,6,,,
,,,,,1,,,,,,A1_B1,magnetism,,R_20NndKuy24lEi5t,MainVerb,2022-06-13_16h02.54.243,SCT_verb,2021.2.3,Win32,144.0092166,,,,,0,219,219,196,1,61,A1_B2,2.45,Noun,1,10.94,2.54,6,1.699,9,,,
,,,,k,1,,,,,,A2_B2,assist,k,R_20NndKuy24lEi5t,MainVerb,2022-06-13_16h02.54.243,SCT_verb,2021.2.3,Win32,144.0092166,1.5227,,,,0,220,220,139,1,43,A1_B2,5.958333333,Verb,0.93,8.75,2.52,5.95,2.603,6,,,
,,,,,1,,,,,,A1_B1,potency,,R_20NndKuy24lEi5t,MainVerb,2022-06-13_16h02.54.243,SCT_verb,2021.2.3,Win32,144.0092166,,,,,0,221,221,16,1,6,A2_B2,2.565217391,Noun,1,12.89,2.32,5.84,1.398,7,,,
,,,,k,1,,,,,,A1_B2,adjust,k,R_20NndKuy24lEi5t,MainVerb,2022-06-13_16h02.54.243,SCT_verb,2021.2.3,Win32,144.0092166,0.5686,,,,0,222,222,137,1,43,A1_B2,2.608695652,Verb,1,8.43,2.93,5.76,2.459,6,,,
,,,,,1,,,,,,A2_B1,adulthood,,R_20NndKuy24lEi5t,MainVerb,2022-06-13_16h02.54.243,SCT_verb,2021.2.3,Win32,144.0092166,,,,,0,223,223,214,1,66,A1_B1,5.714285714,Noun,1,9.95,2.5,5.05,1.58,9,,,
,,,,k,0,,,,,,A1_B1,time,,R_20NndKuy24lEi5t,MainVerb,2022-06-13_16h02.54.243,SCT_verb,2021.2.3,Win32,144.0092166,1.2928,,,,0,224,224,200,1,62,A1_B1,2.88,Noun,0.99,5.16,3.07,5.6,5,4,,,
,,,,k,1,,,,,,A2_B2,hypnotize,k,R_20NndKuy24lEi5t,MainVerb,2022-06-13_16h02.54.243,SCT_verb,2021.2.3,Win32,144.0092166,0.7536,,,,0,225,225,7,1,2,A2_B1,5.095238095,Verb,1,9.89,2.48,5.7,1.505,9,,,
,,,,,1,,,,,,A2_B1,stepson,,R_20NndKuy24lEi5t,MainVerb,2022-06-13_16h02.54.243,SCT_verb,2021.2.3,Win32,144.0092166,,,,,0,226,226,226,1,69,A1_B2,5.083333333,Noun,1,7.94,3.68,4.81,1.447,7,,,
,,,,k,1,,,,,,A1_B2,refuel,k,R_20NndKuy24lEi5t,MainVerb,2022-06-13_16h02.54.243,SCT_verb,2021.2.3,Win32,144.0092166,1.2168,,,,0,227,227,81,1,26,A1_B2,1.954545455,Verb,1,10.22,3.53,5.5,1.643,6,,,
,,,,,1,,,,,,A2_B1,tourism,,R_20NndKuy24lEi5t,MainVerb,2022-06-13_16h02.54.243,SCT_verb,2021.2.3,Win32,144.0092166,,,,,0,228,228,70,1,22,A2_B2,6.130434783,Noun,1,9.53,3,5.35,1.532,7,,,
,,,,k,1,,,,,,A1_B2,sterilize,k,R_20NndKuy24lEi5t,MainVerb,2022-06-13_16h02.54.243,SCT_verb,2021.2.3,Win32,144.0092166,1.2168,,,,0,229,229,141,1,44,A2_B1,2.954545455,Verb,1,11.68,2.97,5.59,1.398,9,,,
,,,,k,1,,,,,,A1_B2,bode,k,R_20NndKuy24lEi5t,MainVerb,2022-06-13_16h02.54.243,SCT_verb,2021.2.3,Win32,144.0092166,0.7727,,,,0,230,230,233,1,71,A1_B1,2.238095238,Verb,0.88,10.93,1.88,4.71,1.398,4,,,
,,,,,1,,,,,,A2_B1,presenter,,R_20NndKuy24lEi5t,MainVerb,2022-06-13_16h02.54.243,SCT_verb,2021.2.3,Win32,144.0092166,,,,,0,231,231,134,1,42,A1_B1,5.238095238,Noun,1,8.9,3.96,5.71,1.322,9,,,
,,,,k,1,,,,,,A2_B2,tolerate,k,R_20NndKuy24lEi5t,MainVerb,2022-06-13_16h02.54.243,SCT_verb,2021.2.3,Win32,144.0092166,1.2023,,,,0,232,232,247,1,3,A2_B1,5.761904762,Verb,1,10.45,1.78,6.19,2.55,8,,,
,,,,,1,,,,,,A2_B1,mankind,,R_20NndKuy24lEi5t,MainVerb,2022-06-13_16h02.54.243,SCT_verb,2021.2.3,Win32,144.0092166,,,,,0,233,233,222,1,68,A2_B2,6.5,Noun,1,8.89,2.97,6.59,2.651,7,,,
,,,,k,1,,,,,,A1_B2,untie,k,R_20NndKuy24lEi5t,MainVerb,2022-06-13_16h02.54.243,SCT_verb,2021.2.3,Win32,144.0092166,0.7793,,,,0,234,234,229,1,70,A2_B1,2.476190476,Verb,1,4.84,3.89,4.95,2.423,5,,,
,,,,k,1,,,,,,A1_B2,suffice,k,R_20NndKuy24lEi5t,MainVerb,2022-06-13_16h02.54.243,SCT_verb,2021.2.3,Win32,144.0092166,0.606,,,,0,235,235,261,1,7,A1_B1,2.375,Verb,1,12.26,1.72,5.52,1.929,7,,,
,,,,k,1,,,,,,A2_B2,conspire,k,R_20NndKuy24lEi5t,MainVerb,2022-06-13_16h02.54.243,SCT_verb,2021.2.3,Win32,144.0092166,0.6624,,,,0,236,236,15,1,5,A2_B1,5.5,Verb,0.9,11,2.67,3.9,1.505,8,,,
,,,,,1,,,,,,A1_B1,catalyst,,R_20NndKuy24lEi5t,MainVerb,2022-06-13_16h02.54.243,SCT_verb,2021.2.3,Win32,144.0092166,,,,,0,237,237,240,1,2,A2_B2,2.238095238,Noun,1,12.56,2.85,5.3,1.613,8,,,
,,,,k,1,,,,,,A1_B2,activate,k,R_20NndKuy24lEi5t,MainVerb,2022-06-13_16h02.54.243,SCT_verb,2021.2.3,Win32,144.0092166,1.2104,,,,0,238,238,153,1,47,A2_B1,2.7,Verb,1,11.11,2.97,5.7,2.378,8,,,
,,,,,1,,,,,,A2_B1,foreigner,,R_20NndKuy24lEi5t,MainVerb,2022-06-13_16h02.54.243,SCT_verb,2021.2.3,Win32,144.0092166,,,,,0,239,239,78,1,24,A1_B1,5.25,Noun,1,10.39,3.32,4.68,2.179,9,,,
,,,,,1,,,,,,A2_B1,savior,,R_20NndKuy24lEi5t,MainVerb,2022-06-13_16h02.54.243,SCT_verb,2021.2.3,Win32,144.0092166,,,,,0,240,240,46,1,16,A1_B2,5.565217391,Noun,0.88,6.68,3.04,6.59,2.24,6,,,
,,,,k,1,,,,,,A2_B2,communicate,k,R_20NndKuy24lEi5t,MainVerb,2022-06-13_16h02.54.243,SCT_verb,2021.2.3,Win32,144.0092166,1.0578,,,,0,241,241,39,1,12,A1_B2,6.476190476,Verb,1,7.63,3.43,6.28,2.639,11,,,
,,,,,1,,,,,,A2_B1,dialect,,R_20NndKuy24lEi5t,MainVerb,2022-06-13_16h02.54.243,SCT_verb,2021.2.3,Win32,144.0092166,,,,,0,242,242,154,1,47,A2_B1,5.523809524,Noun,1,11.5,2.67,6,1.839,7,,,
,,,,k,1,,,,,,A1_B2,postpone,k,R_20NndKuy24lEi5t,MainVerb,2022-06-13_16h02.54.243,SCT_verb,2021.2.3,Win32,144.0092166,1.386,,,,0,243,243,13,1,5,A2_B1,2.916666667,Verb,1,10.42,2.29,4.32,2.301,8,,,
,,,,,1,,,,,,A2_B1,temptress,,R_20NndKuy24lEi5t,MainVerb,2022-06-13_16h02.54.243,SCT_verb,2021.2.3,Win32,144.0092166,,,,,0,244,244,122,1,39,A2_B2,5.086956522,Noun,0.91,12.2,3.08,4.68,1.38,9,,,
,,,,k,1,,,,,,A1_B2,subside,k,R_20NndKuy24lEi5t,MainVerb,2022-06-13_16h02.54.243,SCT_verb,2021.2.3,Win32,144.0092166,2.1608,,,,0,245,245,257,1,6,A1_B1,2.590909091,Verb,1,10.44,2.26,5.42,1.322,7,,,
,,,,k,1,,,,,,A2_B2,negotiate,k,R_20NndKuy24lEi5t,MainVerb,2022-06-13_16h02.54.243,SCT_verb,2021.2.3,Win32,144.0092166,0.7356,,,,0,246,246,55,1,18,A2_B2,5.409090909,Verb,1,10.85,2,5.57,2.535,9,,,
,,,,k,1,,,,,,A1_B2,conclude,k,R_20NndKuy24lEi5t,MainVerb,2022-06-13_16h02.54.243,SCT_verb,2021.2.3,Win32,144.0092166,0.9303,,,,0,247,247,165,1,52,A1_B1,2.681818182,Verb,1,10.48,1.78,4.81,2.107,8,,,
,,,,,1,,,,,,A1_B1,foresight,,R_20NndKuy24lEi5t,MainVerb,2022-06-13_16h02.54.243,SCT_verb,2021.2.3,Win32,144.0092166,,,,,0,248,248,72,1,23,A1_B1,2.65,Noun,1,10.78,1.79,5.79,1.591,9,,,
,,,,,1,,,,,,A2_B1,behavior,,R_20NndKuy24lEi5t,MainVerb,2022-06-13_16h02.54.243,SCT_verb,2021.2.3,Win32,144.0092166,,,,,0,249,249,86,1,27,A2_B2,5.5,Noun,1,7.05,2.19,5.28,3.058,8,,,
,,,,,1,,,,,,A1_B1,percentage,,R_20NndKuy24lEi5t,MainVerb,2022-06-13_16h02.54.243,SCT_verb,2021.2.3,Win32,144.0092166,,,,,0,250,250,96,1,32,A2_B1,1.714285714,Noun,1,10.26,2.9,4.81,2.286,10,,,
,,,,,1,,,,,,A2_B1,attendance,,R_20NndKuy24lEi5t,MainVerb,2022-06-13_16h02.54.243,SCT_verb,2021.2.3,Win32,144.0092166,,,,,0,251,251,238,1,1,A2_B1,5.090909091,Noun,1,7.11,3.07,5.95,2.134,10,,,
,,,,,1,,,,,,A2_B1,diplomacy,,R_20NndKuy24lEi5t,MainVerb,2022-06-13_16h02.54.243,SCT_verb,2021.2.3,Win32,144.0092166,,,,,0,252,252,74,1,23,A1_B1,5.772727273,Noun,1,10.89,2.04,5.53,1.914,9,,,
,,,,k,1,,,,,,A2_B2,invite,k,R_20NndKuy24lEi5t,MainVerb,2022-06-13_16h02.54.243,SCT_verb,2021.2.3,Win32,144.0092166,0.9707,,,,0,253,253,95,1,30,A2_B2,6.090909091,Verb,0.96,6.79,3,5.68,3.179,6,,,
,,,,,1,,,,,,A2_B1,humanity,,R_20NndKuy24lEi5t,MainVerb,2022-06-13_16h02.54.243,SCT_verb,2021.2.3,Win32,144.0092166,,,,,0,254,254,146,1,45,A2_B2,6.19047619,Noun,1,9.28,2.36,6.78,2.696,8,,,
,,,,k,1,,,,,,A1_B2,arise,k,R_20NndKuy24lEi5t,MainVerb,2022-06-13_16h02.54.243,SCT_verb,2021.2.3,Win32,144.0092166,0.6397,,,,0,255,255,45,1,16,A1_B2,2.619047619,Verb,1,6.89,3.17,6.17,2.182,5,,,
,,,,k,1,,,,,,A2_B2,seduce,k,R_20NndKuy24lEi5t,MainVerb,2022-06-13_16h02.54.243,SCT_verb,2021.2.3,Win32,144.0092166,0.5818,,,,0,256,256,179,1,55,A2_B1,5.727272727,Verb,0.97,11.95,2.18,6.74,2.248,6,,,
,,,,k,0,,,,,,A1_B1,countdown,,R_20NndKuy24lEi5t,MainVerb,2022-06-13_16h02.54.243,SCT_verb,2021.2.3,Win32,144.0092166,0.7261,,,,0,257,257,236,1,1,A2_B1,2.956521739,Noun,0.99,6.26,3.3,5.64,2.258,9,,,
,,,,k,1,,,,,,A2_B2,preach,k,R_20NndKuy24lEi5t,MainVerb,2022-06-13_16h02.54.243,SCT_verb,2021.2.3,Win32,144.0092166,1.1471,,,,0,258,258,227,1,69,A1_B2,6.173913043,Verb,1,7.33,3.37,4.15,2.09,6,,,
,,,,,1,,,,,,A2_B1,hometown,,R_20NndKuy24lEi5t,MainVerb,2022-06-13_16h02.54.243,SCT_verb,2021.2.3,Win32,144.0092166,,,,,0,259,259,254,1,5,A2_B1,5.958333333,Noun,0.99,7.22,3.33,6.8,2.301,8,,,
,,,,,1,,,,,,A1_B1,series,,R_20NndKuy24lEi5t,MainVerb,2022-06-13_16h02.54.243,SCT_verb,2021.2.3,Win32,144.0092166,,,,,0,260,260,24,1,8,A2_B1,2.708333333,Noun,1,9.05,2.92,5.23,3.012,6,,,
,,,,k,1,,,,,,A2_B2,govern,k,R_20NndKuy24lEi5t,MainVerb,2022-06-13_16h02.54.243,SCT_verb,2021.2.3,Win32,144.0092166,0.9063,,,,0,261,261,259,1,6,A1_B1,6.260869565,Verb,1,9.53,2.21,4.52,1.799,6,,,
,,,,k,1,,,,,,A2_B2,pray,k,R_20NndKuy24lEi5t,MainVerb,2022-06-13_16h02.54.243,SCT_verb,2021.2.3,Win32,144.0092166,0.5195,,,,0,262,262,267,1,8,A1_B2,5.045454545,Verb,0.96,5.79,3.21,6.57,3.267,4,,,
,,,,k,1,,,,,,A2_B2,dignify,k,R_20NndKuy24lEi5t,MainVerb,2022-06-13_16h02.54.243,SCT_verb,2021.2.3,Win32,144.0092166,0.5359,,,,0,263,263,199,1,61,A1_B2,5.173913043,Verb,1,10.47,1.71,5.68,1.491,7,,,
,,,,k,1,,,,,,A2_B2,contribute,k,R_20NndKuy24lEi5t,MainVerb,2022-06-13_16h02.54.243,SCT_verb,2021.2.3,Win32,144.0092166,0.6308,,,,0,264,264,183,1,57,A2_B1,5.333333333,Verb,1,9.37,2.13,6.15,2.29,10,,,
,,,,k,1,,,,,,A2_B2,endorse,k,R_20NndKuy24lEi5t,MainVerb,2022-06-13_16h02.54.243,SCT_verb,2021.2.3,Win32,144.0092166,0.638,,,,0,265,265,243,1,2,A2_B2,5.416666667,Verb,1,12.06,2.41,5.2,1.949,7,,,
,,,,k,1,,,,,,A2_B2,cherish,k,R_20NndKuy24lEi5t,MainVerb,2022-06-13_16h02.54.243,SCT_verb,2021.2.3,Win32,144.0092166,0.5681,,,,0,266,266,59,1,19,A1_B2,5.473684211,Verb,1,8.9,1.73,6.75,2.358,7,,,
,,,,,1,,,,,,A2_B1,ancestry,,R_20NndKuy24lEi5t,MainVerb,2022-06-13_16h02.54.243,SCT_verb,2021.2.3,Win32,144.0092166,,,,,0,267,267,102,1,33,A1_B1,5.142857143,Noun,1,10.11,2.83,6.29,1.398,8,,,
,,,,,,,,,,,,,,R_20NndKuy24lEi5t,MainVerb,2022-06-13_16h02.54.243,SCT_verb,2021.2.3,Win32,144.0092166,,,,,,,,,,,,,,,,,,,,,space,4.1052
