intro_resp.keys,intro_resp.rt,EmbInstruct_cont.keys,EmbInstruct_cont.rt,embResp.keys,embResp.corr,embResp.rt,Emb_practice.thisRepN,Emb_practice.thisTrialN,Emb_practice.thisN,Emb_practice.thisIndex,Emb_practice.ran,condition,Word,Cresp,participant,session,date,expName,psychopyVersion,OS,frameRate,key_resp.keys,key_resp.rt,key_resp_2.keys,Embody.thisRepN,Embody.thisTrialN,Embody.thisN,Embody.thisIndex,Embody.ran,item_nr,match_null,Socialness,Dom_PoS_SUBTLEX,Percentage_dom_PoS,AoA_Rating,Concreteness,Valence,LgSUBTLWF,Length,key_resp_2.rt,task_cont.keys,task_cont.rt
space,5.1484,space,26.0962,k,1,2.6236,0,0,0,7,1,A2_B2,convince,k,R_VUoLnXCpagrKhwZ,MainVerb,2022-06-13_13h32.14.005,SCT_verb,2021.2.3,Win32,60.01680471,,,,,,,,,,,,,,,,,,,,,
,,,,,1,,0,1,1,4,1,A1_B1,jungle,,R_VUoLnXCpagrKhwZ,MainVerb,2022-06-13_13h32.14.005,SCT_verb,2021.2.3,Win32,60.01680471,,,,,,,,,,,,,,,,,,,,,
,,,,k,1,1.3347,0,2,2,1,1,A1_B2,reduce,k,R_VUoLnXCpagrKhwZ,MainVerb,2022-06-13_13h32.14.005,SCT_verb,2021.2.3,Win32,60.01680471,,,,,,,,,,,,,,,,,,,,,
,,,,k,1,0.9193,0,3,3,5,1,A1_B2,solve,k,R_VUoLnXCpagrKhwZ,MainVerb,2022-06-13_13h32.14.005,SCT_verb,2021.2.3,Win32,60.01680471,,,,,,,,,,,,,,,,,,,,,
,,,,,1,,0,4,4,2,1,A2_B1,heartbreak,,R_VUoLnXCpagrKhwZ,MainVerb,2022-06-13_13h32.14.005,SCT_verb,2021.2.3,Win32,60.01680471,,,,,,,,,,,,,,,,,,,,,
,,,,k,1,0.9686,0,5,5,3,1,A2_B2,adopt,k,R_VUoLnXCpagrKhwZ,MainVerb,2022-06-13_13h32.14.005,SCT_verb,2021.2.3,Win32,60.01680471,,,,,,,,,,,,,,,,,,,,,
,,,,,1,,0,6,6,6,1,A2_B1,drama,,R_VUoLnXCpagrKhwZ,MainVerb,2022-06-13_13h32.14.005,SCT_verb,2021.2.3,Win32,60.01680471,,,,,,,,,,,,,,,,,,,,,
,,,,,1,,0,7,7,0,1,A1_B1,obstacle,,R_VUoLnXCpagrKhwZ,MainVerb,2022-06-13_13h32.14.005,SCT_verb,2021.2.3,Win32,60.01680471,,,,,,,,,,,,,,,,,,,,,
,,,,k,1,0.7504,,,,,,A2_B2,dominate,k,R_VUoLnXCpagrKhwZ,MainVerb,2022-06-13_13h32.14.005,SCT_verb,2021.2.3,Win32,60.01680471,space,11.7658,,0,0,0,131,1,41,A1_B1,5.826086957,Verb,1,8.89,2.12,4.4,1.982,8,,,
,,,,k,1,1.1859,,,,,,A2_B2,advise,k,R_VUoLnXCpagrKhwZ,MainVerb,2022-06-13_13h32.14.005,SCT_verb,2021.2.3,Win32,60.01680471,,,,0,1,1,171,1,53,A1_B1,5.590909091,Verb,1,8.89,2.03,5.44,2.795,6,,,
,,,,,0,,,,,,,A2_B2,wrestle,k,R_VUoLnXCpagrKhwZ,MainVerb,2022-06-13_13h32.14.005,SCT_verb,2021.2.3,Win32,60.01680471,,,,0,2,2,231,1,70,A2_B1,5.04,Verb,0.91,5,4.33,4.53,2.248,7,,,
,,,,k,1,0.6505,,,,,,A2_B2,donate,k,R_VUoLnXCpagrKhwZ,MainVerb,2022-06-13_13h32.14.005,SCT_verb,2021.2.3,Win32,60.01680471,,,,0,3,3,223,1,68,A2_B2,5.181818182,Verb,1,8.2,2.88,6.7,2.31,6,,,
,,,,,1,,,,,,,A2_B1,privilege,,R_VUoLnXCpagrKhwZ,MainVerb,2022-06-13_13h32.14.005,SCT_verb,2021.2.3,Win32,60.01680471,,,,0,4,4,182,1,57,A2_B1,5.12,Noun,1,9.24,1.93,5.81,2.735,9,,,
,,,,,1,,,,,,,A1_B1,simplicity,,R_VUoLnXCpagrKhwZ,MainVerb,2022-06-13_13h32.14.005,SCT_verb,2021.2.3,Win32,60.01680471,,,,0,5,5,124,1,40,A1_B2,2.772727273,Noun,1,9.89,1.96,7.05,1.845,10,,,
,,,,k,0,1.2842,,,,,,A1_B1,shallows,,R_VUoLnXCpagrKhwZ,MainVerb,2022-06-13_13h32.14.005,SCT_verb,2021.2.3,Win32,60.01680471,,,,0,6,6,108,1,35,A1_B2,2.347826087,Noun,1,11.39,3.33,5.37,1.322,8,,,
,,,,k,1,0.6837,,,,,,A1_B2,confine,k,R_VUoLnXCpagrKhwZ,MainVerb,2022-06-13_13h32.14.005,SCT_verb,2021.2.3,Win32,60.01680471,,,,0,7,7,149,1,46,A2_B2,2.826086957,Verb,1,9.71,3.07,3,1.708,7,,,
,,,,,1,,,,,,,A1_B1,carpentry,,R_VUoLnXCpagrKhwZ,MainVerb,2022-06-13_13h32.14.005,SCT_verb,2021.2.3,Win32,60.01680471,,,,0,8,8,8,1,4,A1_B2,2.857142857,Noun,1,9.83,3.48,4.87,1.38,9,,,
,,,,,1,,,,,,,A2_B1,morale,,R_VUoLnXCpagrKhwZ,MainVerb,2022-06-13_13h32.14.005,SCT_verb,2021.2.3,Win32,60.01680471,,,,0,9,9,162,1,50,A1_B2,5.608695652,Noun,1,10.62,1.85,5.95,2.324,6,,,
,,,,,1,,,,,,,A1_B1,summary,,R_VUoLnXCpagrKhwZ,MainVerb,2022-06-13_13h32.14.005,SCT_verb,2021.2.3,Win32,60.01680471,,,,0,10,10,224,1,69,A1_B2,2.523809524,Noun,1,8,3.03,5.05,1.935,7,,,
,,,,k,1,1.0004,,,,,,A1_B2,minimize,k,R_VUoLnXCpagrKhwZ,MainVerb,2022-06-13_13h32.14.005,SCT_verb,2021.2.3,Win32,60.01680471,,,,0,11,11,53,1,18,A2_B2,2.625,Verb,1,10.89,2.37,5.16,1.74,8,,,
,,,,k,1,0.9342,,,,,,A2_B2,consult,k,R_VUoLnXCpagrKhwZ,MainVerb,2022-06-13_13h32.14.005,SCT_verb,2021.2.3,Win32,60.01680471,,,,0,12,12,91,1,28,A2_B2,6.318181818,Verb,1,10.95,3.04,5.41,2.456,7,,,
,,,,,1,,,,,,,A2_B1,community,,R_VUoLnXCpagrKhwZ,MainVerb,2022-06-13_13h32.14.005,SCT_verb,2021.2.3,Win32,60.01680471,,,,0,13,13,38,1,12,A1_B2,6.458333333,Noun,1,7.28,3.52,6.09,3.172,9,,,
,,,,,1,,,,,,,A2_B1,guidance,,R_VUoLnXCpagrKhwZ,MainVerb,2022-06-13_13h32.14.005,SCT_verb,2021.2.3,Win32,60.01680471,,,,0,14,14,218,1,67,A2_B1,5.136363636,Noun,1,8.95,2.46,5.95,2.576,8,,,
,,,,k,0,1.5364,,,,,,A1_B1,vantage,,R_VUoLnXCpagrKhwZ,MainVerb,2022-06-13_13h32.14.005,SCT_verb,2021.2.3,Win32,60.01680471,,,,0,15,15,260,1,7,A1_B1,2.65,Noun,1,12.1,1.93,5.95,1.602,7,,,
,,,,k,0,0.7837,,,,,,A2_B1,presenter,,R_VUoLnXCpagrKhwZ,MainVerb,2022-06-13_13h32.14.005,SCT_verb,2021.2.3,Win32,60.01680471,,,,0,16,16,134,1,42,A1_B1,5.238095238,Noun,1,8.9,3.96,5.71,1.322,9,,,
,,,,,1,,,,,,,A2_B1,rebellion,,R_VUoLnXCpagrKhwZ,MainVerb,2022-06-13_13h32.14.005,SCT_verb,2021.2.3,Win32,60.01680471,,,,0,17,17,130,1,41,A1_B1,6,Noun,1,10,2.93,4.79,2.117,9,,,
,,,,,0,,,,,,,A1_B2,unhook,k,R_VUoLnXCpagrKhwZ,MainVerb,2022-06-13_13h32.14.005,SCT_verb,2021.2.3,Win32,60.01680471,,,,0,18,18,225,1,69,A1_B2,2.136363636,Verb,1,7.22,3.34,4.55,1.653,6,,,
,,,,k,1,0.7655,,,,,,A1_B2,sterilize,k,R_VUoLnXCpagrKhwZ,MainVerb,2022-06-13_13h32.14.005,SCT_verb,2021.2.3,Win32,60.01680471,,,,0,19,19,141,1,44,A2_B1,2.954545455,Verb,1,11.68,2.97,5.59,1.398,9,,,
,,,,k,1,1.0695,,,,,,A1_B2,decipher,k,R_VUoLnXCpagrKhwZ,MainVerb,2022-06-13_13h32.14.005,SCT_verb,2021.2.3,Win32,60.01680471,,,,0,20,20,109,1,35,A1_B2,2.947368421,Verb,1,10.84,2.83,5.09,1.944,8,,,
,,,,,0,,,,,,,A1_B2,discontinue,k,R_VUoLnXCpagrKhwZ,MainVerb,2022-06-13_13h32.14.005,SCT_verb,2021.2.3,Win32,60.01680471,,,,0,21,21,121,1,39,A2_B2,2.227272727,Verb,1,11.63,2.5,3.94,1.544,11,,,
,,,,k,1,0.717,,,,,,A1_B2,maximize,k,R_VUoLnXCpagrKhwZ,MainVerb,2022-06-13_13h32.14.005,SCT_verb,2021.2.3,Win32,60.01680471,,,,0,22,22,245,1,3,A2_B1,2.916666667,Verb,1,10.58,1.79,6.2,1.663,8,,,
,,,,k,1,1.4501,,,,,,A1_B2,accelerate,k,R_VUoLnXCpagrKhwZ,MainVerb,2022-06-13_13h32.14.005,SCT_verb,2021.2.3,Win32,60.01680471,,,,0,23,23,189,1,59,A1_B1,2.25,Verb,1,10.74,3.48,6.1,1.819,10,,,
,,,,,0,,,,,,,A2_B2,mingle,k,R_VUoLnXCpagrKhwZ,MainVerb,2022-06-13_13h32.14.005,SCT_verb,2021.2.3,Win32,60.01680471,,,,0,24,24,83,1,26,A1_B2,5.391304348,Verb,1,10.29,3.17,5.21,2.14,6,,,
,,,,k,1,0.7679,,,,,,A1_B2,classify,k,R_VUoLnXCpagrKhwZ,MainVerb,2022-06-13_13h32.14.005,SCT_verb,2021.2.3,Win32,60.01680471,,,,0,25,25,69,1,22,A2_B2,2.8,Verb,1,9.65,2.41,5.6,1.518,8,,,
,,,,,1,,,,,,,A2_B1,dynasty,,R_VUoLnXCpagrKhwZ,MainVerb,2022-06-13_13h32.14.005,SCT_verb,2021.2.3,Win32,60.01680471,,,,0,26,26,258,1,6,A1_B1,5.571428571,Noun,1,10.5,2.46,5.16,2.117,7,,,
,,,,,1,,,,,,,A1_B1,option,,R_VUoLnXCpagrKhwZ,MainVerb,2022-06-13_13h32.14.005,SCT_verb,2021.2.3,Win32,60.01680471,,,,0,27,27,220,1,68,A2_B2,2.791666667,Noun,1,8.79,2.39,6.37,2.868,6,,,
,,,,k,1,0.9838,,,,,,A2_B2,confront,k,R_VUoLnXCpagrKhwZ,MainVerb,2022-06-13_13h32.14.005,SCT_verb,2021.2.3,Win32,60.01680471,,,,0,28,28,111,1,35,A1_B2,5.086956522,Verb,1,9.89,2.43,4.59,2.34,8,,,
,,,,k,1,0.751,,,,,,A1_B2,conjure,k,R_VUoLnXCpagrKhwZ,MainVerb,2022-06-13_13h32.14.005,SCT_verb,2021.2.3,Win32,60.01680471,,,,0,29,29,241,1,2,A2_B2,2.578947368,Verb,1,11.37,2.3,5.05,1.813,7,,,
,,,,k,1,0.6879,,,,,,A2_B2,persuade,k,R_VUoLnXCpagrKhwZ,MainVerb,2022-06-13_13h32.14.005,SCT_verb,2021.2.3,Win32,60.01680471,,,,0,30,30,167,1,52,A1_B1,5.173913043,Verb,1,10.79,2.07,5.67,2.514,8,,,
,,,,,1,,,,,,,A1_B1,impediment,,R_VUoLnXCpagrKhwZ,MainVerb,2022-06-13_13h32.14.005,SCT_verb,2021.2.3,Win32,60.01680471,,,,0,31,31,172,1,54,A2_B1,2.666666667,Noun,1,13.47,2.56,4.5,1.491,10,,,
,,,,,1,,,,,,,A1_B1,variation,,R_VUoLnXCpagrKhwZ,MainVerb,2022-06-13_13h32.14.005,SCT_verb,2021.2.3,Win32,60.01680471,,,,0,32,32,20,1,7,A2_B1,2.090909091,Noun,1,10.11,2.46,5.53,1.813,9,,,
,,,,,1,,,,,,,A2_B1,fidelity,,R_VUoLnXCpagrKhwZ,MainVerb,2022-06-13_13h32.14.005,SCT_verb,2021.2.3,Win32,60.01680471,,,,0,33,33,18,1,6,A2_B2,5.75,Noun,1,12.82,1.87,6.7,2.009,8,,,
,,,,,1,,,,,,,A1_B1,timing,,R_VUoLnXCpagrKhwZ,MainVerb,2022-06-13_13h32.14.005,SCT_verb,2021.2.3,Win32,60.01680471,,,,0,34,34,136,1,43,A1_B2,2.714285714,Noun,0.96,8.84,2.86,5.67,2.884,6,,,
,,,,,1,,,,,,,A2_B1,teamwork,,R_VUoLnXCpagrKhwZ,MainVerb,2022-06-13_13h32.14.005,SCT_verb,2021.2.3,Win32,60.01680471,,,,0,35,35,210,1,65,A2_B1,6.72,Noun,1,7.8,2.37,6.26,2.013,8,,,
,,,,k,0,1.7668,,,,,,A1_B1,medley,,R_VUoLnXCpagrKhwZ,MainVerb,2022-06-13_13h32.14.005,SCT_verb,2021.2.3,Win32,60.01680471,,,,0,36,36,192,1,60,A2_B1,2.863636364,Noun,0.97,10,2.93,6.6,1.518,6,,,
,,,,k,0,1.0323,,,,,,A1_B1,wrapper,,R_VUoLnXCpagrKhwZ,MainVerb,2022-06-13_13h32.14.005,SCT_verb,2021.2.3,Win32,60.01680471,,,,0,37,37,228,1,70,A2_B1,2.045454545,Noun,1,6.11,4.39,4.79,1.935,7,,,
,,,,k,1,0.7689,,,,,,A2_B2,manipulate,k,R_VUoLnXCpagrKhwZ,MainVerb,2022-06-13_13h32.14.005,SCT_verb,2021.2.3,Win32,60.01680471,,,,0,38,38,3,1,1,A2_B1,5.47826087,Verb,1,11.1,2.55,3.21,2.25,10,,,
,,,,k,1,0.9336,,,,,,A2_B2,greet,k,R_VUoLnXCpagrKhwZ,MainVerb,2022-06-13_13h32.14.005,SCT_verb,2021.2.3,Win32,60.01680471,,,,0,39,39,47,1,16,A1_B2,6.045454545,Verb,1,6.47,2.96,6.25,2.43,5,,,
,,,,k,1,0.8355,,,,,,A2_B2,impress,k,R_VUoLnXCpagrKhwZ,MainVerb,2022-06-13_13h32.14.005,SCT_verb,2021.2.3,Win32,60.01680471,,,,0,40,40,63,1,20,A2_B1,5.333333333,Verb,1,10.17,2.07,6.25,2.717,7,,,
,,,,k,1,0.9175,,,,,,A2_B2,advertise,k,R_VUoLnXCpagrKhwZ,MainVerb,2022-06-13_13h32.14.005,SCT_verb,2021.2.3,Win32,60.01680471,,,,0,41,41,11,1,4,A1_B2,5.434782609,Verb,1,9.63,2.81,5.16,1.929,9,,,
,,,,k,1,0.8835,,,,,,A2_B2,confide,k,R_VUoLnXCpagrKhwZ,MainVerb,2022-06-13_13h32.14.005,SCT_verb,2021.2.3,Win32,60.01680471,,,,0,42,42,263,1,7,A1_B1,5.2,Verb,1,11.22,1.81,6.21,1.991,7,,,
,,,,,1,,,,,,,A1_B1,amendment,,R_VUoLnXCpagrKhwZ,MainVerb,2022-06-13_13h32.14.005,SCT_verb,2021.2.3,Win32,60.01680471,,,,0,43,43,4,1,2,A2_B1,2.95,Noun,1,10.06,2.44,5.6,2.322,9,,,
,,,,,1,,,,,,,A2_B1,stepson,,R_VUoLnXCpagrKhwZ,MainVerb,2022-06-13_13h32.14.005,SCT_verb,2021.2.3,Win32,60.01680471,,,,0,44,44,226,1,69,A1_B2,5.083333333,Noun,1,7.94,3.68,4.81,1.447,7,,,
,,,,k,1,0.7209,,,,,,A2_B2,attend,k,R_VUoLnXCpagrKhwZ,MainVerb,2022-06-13_13h32.14.005,SCT_verb,2021.2.3,Win32,60.01680471,,,,0,45,45,31,1,9,A1_B1,5.76,Verb,1,7.72,3.17,5.4,2.855,6,,,
,,,,k,1,0.7541,,,,,,A2_B2,negotiate,k,R_VUoLnXCpagrKhwZ,MainVerb,2022-06-13_13h32.14.005,SCT_verb,2021.2.3,Win32,60.01680471,,,,0,46,46,55,1,18,A2_B2,5.409090909,Verb,1,10.85,2,5.57,2.535,9,,,
,,,,,1,,,,,,,A1_B1,nightfall,,R_VUoLnXCpagrKhwZ,MainVerb,2022-06-13_13h32.14.005,SCT_verb,2021.2.3,Win32,60.01680471,,,,0,47,47,252,1,5,A2_B1,1.708333333,Noun,1,8.17,3.79,6.63,2.075,9,,,
,,,,k,0,1.4668,,,,,,A2_B1,dialect,,R_VUoLnXCpagrKhwZ,MainVerb,2022-06-13_13h32.14.005,SCT_verb,2021.2.3,Win32,60.01680471,,,,0,48,48,154,1,47,A2_B1,5.523809524,Noun,1,11.5,2.67,6,1.839,7,,,
,,,,,1,,,,,,,A2_B1,bribery,,R_VUoLnXCpagrKhwZ,MainVerb,2022-06-13_13h32.14.005,SCT_verb,2021.2.3,Win32,60.01680471,,,,0,49,49,34,1,10,A2_B2,5.761904762,Noun,1,10.65,2.89,3.59,1.845,7,,,
,,,,,1,,,,,,,A1_B1,catalyst,,R_VUoLnXCpagrKhwZ,MainVerb,2022-06-13_13h32.14.005,SCT_verb,2021.2.3,Win32,60.01680471,,,,0,50,50,240,1,2,A2_B2,2.238095238,Noun,1,12.56,2.85,5.3,1.613,8,,,
,,,,,1,,,,,,,A2_B1,monarchy,,R_VUoLnXCpagrKhwZ,MainVerb,2022-06-13_13h32.14.005,SCT_verb,2021.2.3,Win32,60.01680471,,,,0,51,51,186,1,58,A1_B2,5.409090909,Noun,1,10.44,2.55,3.29,1.544,8,,,
,,,,,1,,,,,,,A1_B1,trajectory,,R_VUoLnXCpagrKhwZ,MainVerb,2022-06-13_13h32.14.005,SCT_verb,2021.2.3,Win32,60.01680471,,,,0,52,52,120,1,39,A2_B2,2,Noun,1,11.94,3.1,4.89,1.978,10,,,
,,,,k,1,0.6839,,,,,,A2_B2,interact,k,R_VUoLnXCpagrKhwZ,MainVerb,2022-06-13_13h32.14.005,SCT_verb,2021.2.3,Win32,60.01680471,,,,0,53,53,103,1,33,A1_B1,5.217391304,Verb,1,9.58,2.88,6,1.869,8,,,
,,,,,1,,,,,,,A2_B1,esteem,,R_VUoLnXCpagrKhwZ,MainVerb,2022-06-13_13h32.14.005,SCT_verb,2021.2.3,Win32,60.01680471,,,,0,54,54,42,1,14,A1_B2,5.217391304,Noun,1,10.55,1.83,6.38,1.94,6,,,
,,,,,1,,,,,,,A2_B1,etiquette,,R_VUoLnXCpagrKhwZ,MainVerb,2022-06-13_13h32.14.005,SCT_verb,2021.2.3,Win32,60.01680471,,,,0,55,55,198,1,61,A1_B2,5.19047619,Noun,1,9.5,2.15,6,1.987,9,,,
,,,,,1,,,,,,,A1_B1,voucher,,R_VUoLnXCpagrKhwZ,MainVerb,2022-06-13_13h32.14.005,SCT_verb,2021.2.3,Win32,60.01680471,,,,0,56,56,80,1,26,A1_B2,2.4,Noun,1,10.3,3.81,5.67,1.672,7,,,
,,,,k,1,0.7011,,,,,,A2_B2,infiltrate,k,R_VUoLnXCpagrKhwZ,MainVerb,2022-06-13_13h32.14.005,SCT_verb,2021.2.3,Win32,60.01680471,,,,0,57,57,123,1,39,A2_B2,5,Verb,1,12,2.71,4.41,1.935,10,,,
,,,,k,1,0.8335,,,,,,A2_B2,communicate,k,R_VUoLnXCpagrKhwZ,MainVerb,2022-06-13_13h32.14.005,SCT_verb,2021.2.3,Win32,60.01680471,,,,0,58,58,39,1,12,A1_B2,6.476190476,Verb,1,7.63,3.43,6.28,2.639,11,,,
,,,,k,1,1.4169,,,,,,A2_B2,entrust,k,R_VUoLnXCpagrKhwZ,MainVerb,2022-06-13_13h32.14.005,SCT_verb,2021.2.3,Win32,60.01680471,,,,0,59,59,19,1,6,A2_B2,5.782608696,Verb,1,11.89,2.16,6.32,1.58,7,,,
,,,,,1,,,,,,,A2_B1,foreigner,,R_VUoLnXCpagrKhwZ,MainVerb,2022-06-13_13h32.14.005,SCT_verb,2021.2.3,Win32,60.01680471,,,,0,60,60,78,1,24,A1_B1,5.25,Noun,1,10.39,3.32,4.68,2.179,9,,,
,,,,,0,,,,,,,A1_B2,derive,k,R_VUoLnXCpagrKhwZ,MainVerb,2022-06-13_13h32.14.005,SCT_verb,2021.2.3,Win32,60.01680471,,,,0,61,61,157,1,49,A2_B2,2.941176471,Verb,1,12,2,4.72,1.556,6,,,
,,,,,1,,,,,,,A2_B1,uprising,,R_VUoLnXCpagrKhwZ,MainVerb,2022-06-13_13h32.14.005,SCT_verb,2021.2.3,Win32,60.01680471,,,,0,62,62,14,1,5,A2_B1,5.285714286,Noun,1,11.17,2.41,4.33,1.778,8,,,
,,,,,1,,,,,,,A1_B1,anomaly,,R_VUoLnXCpagrKhwZ,MainVerb,2022-06-13_13h32.14.005,SCT_verb,2021.2.3,Win32,60.01680471,,,,0,63,63,156,1,49,A2_B2,2.111111111,Noun,1,12.44,1.79,4.84,1.806,7,,,
,,,,k,1,0.9335,,,,,,A1_B2,activate,k,R_VUoLnXCpagrKhwZ,MainVerb,2022-06-13_13h32.14.005,SCT_verb,2021.2.3,Win32,60.01680471,,,,0,64,64,153,1,47,A2_B1,2.7,Verb,1,11.11,2.97,5.7,2.378,8,,,
,,,,,0,,,,,,,A1_B2,hover,k,R_VUoLnXCpagrKhwZ,MainVerb,2022-06-13_13h32.14.005,SCT_verb,2021.2.3,Win32,60.01680471,,,,0,65,65,249,1,4,A1_B1,2.75,Verb,1,8.58,3.17,5.5,1.778,5,,,
,,,,,1,,,,,,,A1_B1,time,,R_VUoLnXCpagrKhwZ,MainVerb,2022-06-13_13h32.14.005,SCT_verb,2021.2.3,Win32,60.01680471,,,,0,66,66,200,1,62,A1_B1,2.88,Noun,0.99,5.16,3.07,5.6,5,4,,,
,,,,,1,,,,,,,A1_B1,figment,,R_VUoLnXCpagrKhwZ,MainVerb,2022-06-13_13h32.14.005,SCT_verb,2021.2.3,Win32,60.01680471,,,,0,67,67,256,1,6,A1_B1,2.333333333,Noun,1,9.63,2.04,5,1.748,7,,,
,,,,k,1,0.8171,,,,,,A2_B2,administer,k,R_VUoLnXCpagrKhwZ,MainVerb,2022-06-13_13h32.14.005,SCT_verb,2021.2.3,Win32,60.01680471,,,,0,68,68,215,1,66,A1_B1,5,Verb,1,9.42,2.53,4.4,1.935,10,,,
,,,,,1,,,,,,,A2_B1,warfare,,R_VUoLnXCpagrKhwZ,MainVerb,2022-06-13_13h32.14.005,SCT_verb,2021.2.3,Win32,60.01680471,,,,0,69,69,150,1,46,A2_B2,5.571428571,Noun,1,8.95,3.03,3.14,2.179,7,,,
,,,,,1,,,,,,,A1_B1,detail,,R_VUoLnXCpagrKhwZ,MainVerb,2022-06-13_13h32.14.005,SCT_verb,2021.2.3,Win32,60.01680471,,,,0,70,70,168,1,53,A1_B1,2.826086957,Noun,0.96,9.79,2.5,5.67,2.996,6,,,
,,,,k,1,0.734,,,,,,A2_B2,motivate,k,R_VUoLnXCpagrKhwZ,MainVerb,2022-06-13_13h32.14.005,SCT_verb,2021.2.3,Win32,60.01680471,,,,0,71,71,119,1,37,A2_B1,5.260869565,Verb,1,9.9,2.07,6.05,1.74,8,,,
,,,,k,1,0.9193,,,,,,A2_B2,govern,k,R_VUoLnXCpagrKhwZ,MainVerb,2022-06-13_13h32.14.005,SCT_verb,2021.2.3,Win32,60.01680471,,,,0,72,72,259,1,6,A1_B1,6.260869565,Verb,1,9.53,2.21,4.52,1.799,6,,,
,,,,,1,,,,,,,A2_B1,behavior,,R_VUoLnXCpagrKhwZ,MainVerb,2022-06-13_13h32.14.005,SCT_verb,2021.2.3,Win32,60.01680471,,,,0,73,73,86,1,27,A2_B2,5.5,Noun,1,7.05,2.19,5.28,3.058,8,,,
,,,,,1,,,,,,,A1_B1,drawback,,R_VUoLnXCpagrKhwZ,MainVerb,2022-06-13_13h32.14.005,SCT_verb,2021.2.3,Win32,60.01680471,,,,0,74,74,128,1,41,A1_B1,2.708333333,Noun,1,9.63,2.52,4.38,1.518,8,,,
,,,,k,1,1.6003,,,,,,A2_B2,endorse,k,R_VUoLnXCpagrKhwZ,MainVerb,2022-06-13_13h32.14.005,SCT_verb,2021.2.3,Win32,60.01680471,,,,0,75,75,243,1,2,A2_B2,5.416666667,Verb,1,12.06,2.41,5.2,1.949,7,,,
,,,,k,1,0.6688,,,,,,A2_B2,terrorize,k,R_VUoLnXCpagrKhwZ,MainVerb,2022-06-13_13h32.14.005,SCT_verb,2021.2.3,Win32,60.01680471,,,,0,76,76,115,1,36,A1_B2,5.363636364,Verb,1,9.72,2.84,2.5,1.431,9,,,
,,,,k,1,1.1335,,,,,,A1_B2,untie,k,R_VUoLnXCpagrKhwZ,MainVerb,2022-06-13_13h32.14.005,SCT_verb,2021.2.3,Win32,60.01680471,,,,0,77,77,229,1,70,A2_B1,2.476190476,Verb,1,4.84,3.89,4.95,2.423,5,,,
,,,,k,1,1.4668,,,,,,A2_B2,pacify,k,R_VUoLnXCpagrKhwZ,MainVerb,2022-06-13_13h32.14.005,SCT_verb,2021.2.3,Win32,60.01680471,,,,0,78,78,163,1,50,A1_B2,5.476190476,Verb,1,10.37,2.04,5.67,1.322,6,,,
,,,,k,1,1.0833,,,,,,A1_B2,postpone,k,R_VUoLnXCpagrKhwZ,MainVerb,2022-06-13_13h32.14.005,SCT_verb,2021.2.3,Win32,60.01680471,,,,0,79,79,13,1,5,A2_B1,2.916666667,Verb,1,10.42,2.29,4.32,2.301,8,,,
,,,,k,1,1.0999,,,,,,A1_B2,recreate,k,R_VUoLnXCpagrKhwZ,MainVerb,2022-06-13_13h32.14.005,SCT_verb,2021.2.3,Win32,60.01680471,,,,0,80,80,117,1,37,A2_B1,2.894736842,Verb,1,9.21,2.41,6,1.732,8,,,
,,,,k,1,1.0335,,,,,,A1_B2,restore,k,R_VUoLnXCpagrKhwZ,MainVerb,2022-06-13_13h32.14.005,SCT_verb,2021.2.3,Win32,60.01680471,,,,0,81,81,89,1,28,A2_B2,2.583333333,Verb,1,10.78,2.79,5.86,2.405,7,,,
,,,,,1,,,,,,,A2_B1,congress,,R_VUoLnXCpagrKhwZ,MainVerb,2022-06-13_13h32.14.005,SCT_verb,2021.2.3,Win32,60.01680471,,,,0,82,82,106,1,34,A1_B2,5.571428571,Noun,1,9.05,3.9,3.55,2.623,8,,,
,,,,k,1,0.7984,,,,,,A1_B2,generate,k,R_VUoLnXCpagrKhwZ,MainVerb,2022-06-13_13h32.14.005,SCT_verb,2021.2.3,Win32,60.01680471,,,,0,83,83,73,1,23,A1_B1,2.636363636,Verb,1,10.78,2.23,6.14,2.097,8,,,
,,,,,1,,,,,,,A1_B1,percentage,,R_VUoLnXCpagrKhwZ,MainVerb,2022-06-13_13h32.14.005,SCT_verb,2021.2.3,Win32,60.01680471,,,,0,84,84,96,1,32,A2_B1,1.714285714,Noun,1,10.26,2.9,4.81,2.286,10,,,
,,,,,0,,,,,,,A1_B2,suffice,k,R_VUoLnXCpagrKhwZ,MainVerb,2022-06-13_13h32.14.005,SCT_verb,2021.2.3,Win32,60.01680471,,,,0,85,85,261,1,7,A1_B1,2.375,Verb,1,12.26,1.72,5.52,1.929,7,,,
,,,,,1,,,,,,,A1_B1,chapter,,R_VUoLnXCpagrKhwZ,MainVerb,2022-06-13_13h32.14.005,SCT_verb,2021.2.3,Win32,60.01680471,,,,0,86,86,92,1,30,A2_B2,1.833333333,Noun,1,6.42,3.43,5.7,2.782,7,,,
,,,,k,0,2.2168,,,,,,A2_B1,humility,,R_VUoLnXCpagrKhwZ,MainVerb,2022-06-13_13h32.14.005,SCT_verb,2021.2.3,Win32,60.01680471,,,,0,87,87,54,1,18,A2_B2,5.375,Noun,1,10.21,1.75,5.65,2.09,8,,,
,,,,,1,,,,,,,A2_B1,patriot,,R_VUoLnXCpagrKhwZ,MainVerb,2022-06-13_13h32.14.005,SCT_verb,2021.2.3,Win32,60.01680471,,,,0,88,88,82,1,26,A1_B2,5.695652174,Noun,0.97,10.14,3.36,5.8,2.127,7,,,
,,,,,1,,,,,,,A1_B1,series,,R_VUoLnXCpagrKhwZ,MainVerb,2022-06-13_13h32.14.005,SCT_verb,2021.2.3,Win32,60.01680471,,,,0,89,89,24,1,8,A2_B1,2.708333333,Noun,1,9.05,2.92,5.23,3.012,6,,,
,,,,,0,,,,,,,A1_B2,replenish,k,R_VUoLnXCpagrKhwZ,MainVerb,2022-06-13_13h32.14.005,SCT_verb,2021.2.3,Win32,60.01680471,,,,0,90,90,125,1,40,A1_B2,2.166666667,Verb,1,9.33,2.18,6.9,1.431,9,,,
,,,,,1,,,,,,,A2_B1,excursion,,R_VUoLnXCpagrKhwZ,MainVerb,2022-06-13_13h32.14.005,SCT_verb,2021.2.3,Win32,60.01680471,,,,0,91,91,6,1,2,A2_B1,5.260869565,Noun,1,10.11,2.93,5.83,1.544,9,,,
,,,,,0,,,,,,,A1_B2,tremble,k,R_VUoLnXCpagrKhwZ,MainVerb,2022-06-13_13h32.14.005,SCT_verb,2021.2.3,Win32,60.01680471,,,space,0,92,92,105,1,34,A1_B2,2.227272727,Verb,1,8.89,3.61,3.18,2.061,7,5.9441,,
,,,,,1,,,,,,,A2_B1,speech,,R_VUoLnXCpagrKhwZ,MainVerb,2022-06-13_13h32.14.005,SCT_verb,2021.2.3,Win32,60.01680471,,,,0,93,93,266,1,8,A1_B2,6.08,Noun,1,6.22,3.37,5.62,3.288,6,,,
,,,,,1,,,,,,,A1_B1,reference,,R_VUoLnXCpagrKhwZ,MainVerb,2022-06-13_13h32.14.005,SCT_verb,2021.2.3,Win32,60.01680471,,,,0,94,94,180,1,57,A2_B1,2.761904762,Noun,0.95,8.67,2.38,5.63,2.636,9,,,
,,,,,1,,,,,,,A2_B1,seminar,,R_VUoLnXCpagrKhwZ,MainVerb,2022-06-13_13h32.14.005,SCT_verb,2021.2.3,Win32,60.01680471,,,,0,95,95,90,1,28,A2_B2,5.368421053,Noun,1,11.8,3.48,5.2,2.338,7,,,
,,,,k,1,0.7013,,,,,,A1_B2,replicate,k,R_VUoLnXCpagrKhwZ,MainVerb,2022-06-13_13h32.14.005,SCT_verb,2021.2.3,Win32,60.01680471,,,,0,96,96,77,1,24,A1_B1,2.739130435,Verb,1,11.26,3.33,4.95,1.58,9,,,
,,,,,1,,,,,,,A2_B1,flirtation,,R_VUoLnXCpagrKhwZ,MainVerb,2022-06-13_13h32.14.005,SCT_verb,2021.2.3,Win32,60.01680471,,,,0,97,97,22,1,7,A2_B1,5.391304348,Noun,1,10.53,2.19,5.78,1.568,10,,,
,,,,k,1,0.7341,,,,,,A1_B2,reflect,k,R_VUoLnXCpagrKhwZ,MainVerb,2022-06-13_13h32.14.005,SCT_verb,2021.2.3,Win32,60.01680471,,,,0,98,98,61,1,20,A2_B1,2.909090909,Verb,1,9.89,2.81,6.1,2.33,7,,,
,,,,,1,,,,,,,A1_B1,countdown,,R_VUoLnXCpagrKhwZ,MainVerb,2022-06-13_13h32.14.005,SCT_verb,2021.2.3,Win32,60.01680471,,,,0,99,99,236,1,1,A2_B1,2.956521739,Noun,0.99,6.26,3.3,5.64,2.258,9,,,
,,,,,1,,,,,,,A2_B1,nobility,,R_VUoLnXCpagrKhwZ,MainVerb,2022-06-13_13h32.14.005,SCT_verb,2021.2.3,Win32,60.01680471,,,,0,100,100,142,1,44,A2_B1,5.708333333,Noun,1,11.39,2.81,5.83,1.929,8,,,
,,,,k,1,1.5663,,,,,,A1_B2,pronounce,k,R_VUoLnXCpagrKhwZ,MainVerb,2022-06-13_13h32.14.005,SCT_verb,2021.2.3,Win32,60.01680471,,,,0,101,101,217,1,67,A2_B1,2.958333333,Verb,1,8.42,2.63,5.61,2.521,9,,,
,,,,,1,,,,,,,A2_B1,diversity,,R_VUoLnXCpagrKhwZ,MainVerb,2022-06-13_13h32.14.005,SCT_verb,2021.2.3,Win32,60.01680471,,,,0,102,102,246,1,3,A2_B1,5.875,Noun,1,10.79,2.28,6.14,1.756,9,,,
,,,,k,1,0.849,,,,,,A2_B2,cherish,k,R_VUoLnXCpagrKhwZ,MainVerb,2022-06-13_13h32.14.005,SCT_verb,2021.2.3,Win32,60.01680471,,,,0,103,103,59,1,19,A1_B2,5.473684211,Verb,1,8.9,1.73,6.75,2.358,7,,,
,,,,,1,,,,,,,A1_B1,dimension,,R_VUoLnXCpagrKhwZ,MainVerb,2022-06-13_13h32.14.005,SCT_verb,2021.2.3,Win32,60.01680471,,,,0,104,104,52,1,18,A2_B2,2.434782609,Noun,1,10.26,2.5,5.24,2.375,9,,,
,,,,,1,,,,,,,A2_B1,manhood,,R_VUoLnXCpagrKhwZ,MainVerb,2022-06-13_13h32.14.005,SCT_verb,2021.2.3,Win32,60.01680471,,,,0,105,105,178,1,55,A2_B1,5.25,Noun,1,12.95,2.59,6.5,2.167,7,,,
,,,,,1,,,,,,,A1_B1,size,,R_VUoLnXCpagrKhwZ,MainVerb,2022-06-13_13h32.14.005,SCT_verb,2021.2.3,Win32,60.01680471,,,,0,106,106,264,1,8,A1_B2,2.3,Noun,0.99,4.84,3.13,5.61,3.372,4,,,
,,,,k,1,1.2703,,,,,,A2_B2,implore,k,R_VUoLnXCpagrKhwZ,MainVerb,2022-06-13_13h32.14.005,SCT_verb,2021.2.3,Win32,60.01680471,,,,0,107,107,159,1,49,A2_B2,5,Verb,1,12.44,1.61,4.47,1.732,7,,,
,,,,,1,,,,,,,A1_B1,dioxide,,R_VUoLnXCpagrKhwZ,MainVerb,2022-06-13_13h32.14.005,SCT_verb,2021.2.3,Win32,60.01680471,,,,0,108,108,12,1,5,A2_B1,1.363636364,Noun,1,11.4,2.81,4.58,1.724,7,,,
,,,,,1,,,,,,,A1_B1,outage,,R_VUoLnXCpagrKhwZ,MainVerb,2022-06-13_13h32.14.005,SCT_verb,2021.2.3,Win32,60.01680471,,,,0,109,109,204,1,63,A2_B2,2.95,Noun,1,9.06,2.83,3.86,1.342,6,,,
,,,,,1,,,,,,,A1_B1,allergy,,R_VUoLnXCpagrKhwZ,MainVerb,2022-06-13_13h32.14.005,SCT_verb,2021.2.3,Win32,60.01680471,,,,0,110,110,104,1,34,A1_B2,2.714285714,Noun,1,8.11,3.68,2.9,1.94,7,,,
,,,,k,1,1.4001,,,,,,A1_B2,retain,k,R_VUoLnXCpagrKhwZ,MainVerb,2022-06-13_13h32.14.005,SCT_verb,2021.2.3,Win32,60.01680471,,,,0,111,111,41,1,14,A1_B2,2.608695652,Verb,1,11.32,2.32,6.25,2.086,6,,,
,,,,k,1,0.7499,,,,,,A2_B2,cooperate,k,R_VUoLnXCpagrKhwZ,MainVerb,2022-06-13_13h32.14.005,SCT_verb,2021.2.3,Win32,60.01680471,,,,0,112,112,211,1,65,A2_B1,6.541666667,Verb,1,8.28,1.87,6.39,2.724,9,,,
,,,,,0,,,,,,,A1_B2,unravel,k,R_VUoLnXCpagrKhwZ,MainVerb,2022-06-13_13h32.14.005,SCT_verb,2021.2.3,Win32,60.01680471,,,,0,113,113,129,1,41,A1_B1,2.8,Verb,1,10.16,2.59,4.39,1.699,7,,,
,,,,k,1,2.4674,,,,,,A1_B2,expire,k,R_VUoLnXCpagrKhwZ,MainVerb,2022-06-13_13h32.14.005,SCT_verb,2021.2.3,Win32,60.01680471,,,,0,114,114,205,1,63,A2_B2,2,Verb,1,7.68,2.73,3.16,1.672,6,,,
,,,,,1,,,,,,,A1_B1,finale,,R_VUoLnXCpagrKhwZ,MainVerb,2022-06-13_13h32.14.005,SCT_verb,2021.2.3,Win32,60.01680471,,,,0,115,115,248,1,4,A1_B1,2.875,Noun,1,7.74,2.76,5.26,2.1,6,,,
,,,,,1,,,,,,,A2_B1,tourism,,R_VUoLnXCpagrKhwZ,MainVerb,2022-06-13_13h32.14.005,SCT_verb,2021.2.3,Win32,60.01680471,,,,0,116,116,70,1,22,A2_B2,6.130434783,Noun,1,9.53,3,5.35,1.532,7,,,
,,,,,0,,,,,,,A1_B2,straighten,k,R_VUoLnXCpagrKhwZ,MainVerb,2022-06-13_13h32.14.005,SCT_verb,2021.2.3,Win32,60.01680471,,,,0,117,117,37,1,12,A1_B2,2,Verb,1,7.63,3.72,6.26,2.757,10,,,
,,,,,1,,,,,,,A2_B1,environment,,R_VUoLnXCpagrKhwZ,MainVerb,2022-06-13_13h32.14.005,SCT_verb,2021.2.3,Win32,60.01680471,,,,0,118,118,190,1,59,A1_B1,5.347826087,Noun,1,9.85,3.74,6.7,2.815,11,,,
,,,,,1,,,,,,,A2_B1,talker,,R_VUoLnXCpagrKhwZ,MainVerb,2022-06-13_13h32.14.005,SCT_verb,2021.2.3,Win32,60.01680471,,,,0,119,119,230,1,70,A2_B1,6.05,Noun,1,5.74,4.39,4.55,1.964,6,,,
,,,,k,1,1.0858,,,,,,A2_B2,invade,k,R_VUoLnXCpagrKhwZ,MainVerb,2022-06-13_13h32.14.005,SCT_verb,2021.2.3,Win32,60.01680471,,,,0,120,120,107,1,34,A1_B2,5.818181818,Verb,1,9.39,3.28,3.32,2.196,6,,,
,,,,k,1,1.3825,,,,,,A1_B2,lighten,k,R_VUoLnXCpagrKhwZ,MainVerb,2022-06-13_13h32.14.005,SCT_verb,2021.2.3,Win32,60.01680471,,,,0,121,121,145,1,45,A2_B2,2.636363636,Verb,1,7.95,2.93,6.21,2.48,7,,,
,,,,,1,,,,,,,A2_B1,sinner,,R_VUoLnXCpagrKhwZ,MainVerb,2022-06-13_13h32.14.005,SCT_verb,2021.2.3,Win32,60.01680471,,,,0,122,122,206,1,63,A2_B2,5.818181818,Noun,0.92,7.35,3.07,3.25,2.104,6,,,
,,,,k,1,1.9669,,,,,,A1_B2,rearrange,k,R_VUoLnXCpagrKhwZ,MainVerb,2022-06-13_13h32.14.005,SCT_verb,2021.2.3,Win32,60.01680471,,,,0,123,123,237,1,1,A2_B1,2.727272727,Verb,1,8.11,3.26,5.52,1.949,9,,,
,,,,,1,,,,,,,A2_B1,heroism,,R_VUoLnXCpagrKhwZ,MainVerb,2022-06-13_13h32.14.005,SCT_verb,2021.2.3,Win32,60.01680471,,,,0,124,124,194,1,60,A2_B1,6.086956522,Noun,1,9.55,2.67,7.05,1.756,7,,,
,,,,,1,,,,,,,A2_B1,mutiny,,R_VUoLnXCpagrKhwZ,MainVerb,2022-06-13_13h32.14.005,SCT_verb,2021.2.3,Win32,60.01680471,,,,0,125,125,234,1,71,A1_B1,5.526315789,Noun,1,10.59,2.24,4.2,2.104,6,,,
,,,,,1,,,,,,,A1_B1,foresight,,R_VUoLnXCpagrKhwZ,MainVerb,2022-06-13_13h32.14.005,SCT_verb,2021.2.3,Win32,60.01680471,,,,0,126,126,72,1,23,A1_B1,2.65,Noun,1,10.78,1.79,5.79,1.591,9,,,
,,,,k,1,1.7502,,,,,,A2_B2,inhabit,k,R_VUoLnXCpagrKhwZ,MainVerb,2022-06-13_13h32.14.005,SCT_verb,2021.2.3,Win32,60.01680471,,,,0,127,127,143,1,44,A2_B1,5.130434783,Verb,1,12.22,3.21,5.38,1.532,7,,,
,,,,,1,,,,,,,A1_B1,volumes,,R_VUoLnXCpagrKhwZ,MainVerb,2022-06-13_13h32.14.005,SCT_verb,2021.2.3,Win32,60.01680471,,,,0,128,128,144,1,45,A2_B2,2,Noun,1,9.58,3.03,6,1.74,7,,,
,,,,k,1,0.7318,,,,,,A2_B2,contribute,k,R_VUoLnXCpagrKhwZ,MainVerb,2022-06-13_13h32.14.005,SCT_verb,2021.2.3,Win32,60.01680471,,,,0,129,129,183,1,57,A2_B1,5.333333333,Verb,1,9.37,2.13,6.15,2.29,10,,,
,,,,,1,,,,,,,A1_B1,dynamo,,R_VUoLnXCpagrKhwZ,MainVerb,2022-06-13_13h32.14.005,SCT_verb,2021.2.3,Win32,60.01680471,,,,0,130,130,176,1,55,A2_B1,2.333333333,Noun,1,12.32,2.71,6.21,1.431,6,,,
,,,,,1,,,,,,,A2_B1,persuasion,,R_VUoLnXCpagrKhwZ,MainVerb,2022-06-13_13h32.14.005,SCT_verb,2021.2.3,Win32,60.01680471,,,,0,131,131,166,1,52,A1_B1,5.083333333,Noun,1,10.9,1.9,5.67,2.004,10,,,
,,,,,1,,,,,,,A1_B1,layer,,R_VUoLnXCpagrKhwZ,MainVerb,2022-06-13_13h32.14.005,SCT_verb,2021.2.3,Win32,60.01680471,,,,0,132,132,28,1,9,A1_B1,2.095238095,Noun,0.97,8.28,3.52,5.2,2.279,5,,,
,,,,,0,,,,,,,A2_B2,dignify,k,R_VUoLnXCpagrKhwZ,MainVerb,2022-06-13_13h32.14.005,SCT_verb,2021.2.3,Win32,60.01680471,,,,0,133,133,199,1,61,A1_B2,5.173913043,Verb,1,10.47,1.71,5.68,1.491,7,,,
,,,,k,1,0.6525,,,,,,A2_B2,participate,k,R_VUoLnXCpagrKhwZ,MainVerb,2022-06-13_13h32.14.005,SCT_verb,2021.2.3,Win32,60.01680471,,,,0,134,134,239,1,1,A2_B1,5.869565217,Verb,1,7.05,2.59,5.5,2.352,11,,,
,,,,k,1,0.9464,,,,,,A2_B2,seduce,k,R_VUoLnXCpagrKhwZ,MainVerb,2022-06-13_13h32.14.005,SCT_verb,2021.2.3,Win32,60.01680471,,,,0,135,135,179,1,55,A2_B1,5.727272727,Verb,0.97,11.95,2.18,6.74,2.248,6,,,
,,,,,1,,,,,,,A2_B1,aggressor,,R_VUoLnXCpagrKhwZ,MainVerb,2022-06-13_13h32.14.005,SCT_verb,2021.2.3,Win32,60.01680471,,,,0,136,136,114,1,36,A1_B2,5.086956522,Noun,1,11.47,3.29,2.8,1.477,9,,,
,,,,,1,,,,,,,A1_B1,metaphor,,R_VUoLnXCpagrKhwZ,MainVerb,2022-06-13_13h32.14.005,SCT_verb,2021.2.3,Win32,60.01680471,,,,0,137,137,244,1,3,A2_B1,2.652173913,Noun,1,11.59,1.94,6.11,2.299,8,,,
,,,,,1,,,,,,,A2_B1,hometown,,R_VUoLnXCpagrKhwZ,MainVerb,2022-06-13_13h32.14.005,SCT_verb,2021.2.3,Win32,60.01680471,,,,0,138,138,254,1,5,A2_B1,5.958333333,Noun,0.99,7.22,3.33,6.8,2.301,8,,,
,,,,,1,,,,,,,A1_B1,outcome,,R_VUoLnXCpagrKhwZ,MainVerb,2022-06-13_13h32.14.005,SCT_verb,2021.2.3,Win32,60.01680471,,,,0,139,139,216,1,67,A2_B1,2.956521739,Noun,1,9.53,2.27,5.62,2.305,7,,,
,,,,k,1,0.9529,,,,,,A2_B2,supervise,k,R_VUoLnXCpagrKhwZ,MainVerb,2022-06-13_13h32.14.005,SCT_verb,2021.2.3,Win32,60.01680471,,,,0,140,140,99,1,32,A2_B1,5.318181818,Verb,1,11,2.48,5.05,1.996,9,,,
,,,,,1,,,,,,,A2_B1,solitude,,R_VUoLnXCpagrKhwZ,MainVerb,2022-06-13_13h32.14.005,SCT_verb,2021.2.3,Win32,60.01680471,,,,0,141,141,158,1,49,A2_B2,5,Noun,0.97,12,2.07,4.76,2.013,8,,,
,,,,,1,,,,,,,A2_B1,monogamy,,R_VUoLnXCpagrKhwZ,MainVerb,2022-06-13_13h32.14.005,SCT_verb,2021.2.3,Win32,60.01680471,,,,0,142,142,262,1,7,A1_B1,5.6,Noun,1,13.06,1.7,6.43,1.672,8,,,
,,,,,1,,,,,,,A1_B1,fireside,,R_VUoLnXCpagrKhwZ,MainVerb,2022-06-13_13h32.14.005,SCT_verb,2021.2.3,Win32,60.01680471,,,,0,143,143,132,1,42,A1_B1,2.095238095,Noun,1,9.39,3.84,6,1.322,8,,,
,,,,,1,,,,,,,A1_B1,geology,,R_VUoLnXCpagrKhwZ,MainVerb,2022-06-13_13h32.14.005,SCT_verb,2021.2.3,Win32,60.01680471,,,,0,144,144,100,1,33,A1_B1,2.708333333,Noun,1,10,2.9,5.89,1.681,7,,,
,,,,k,1,1.0174,,,,,,A1_B2,adjust,k,R_VUoLnXCpagrKhwZ,MainVerb,2022-06-13_13h32.14.005,SCT_verb,2021.2.3,Win32,60.01680471,,,,0,145,145,137,1,43,A1_B2,2.608695652,Verb,1,8.43,2.93,5.76,2.459,6,,,
,,,,,1,,,,,,,A1_B1,magnetism,,R_VUoLnXCpagrKhwZ,MainVerb,2022-06-13_13h32.14.005,SCT_verb,2021.2.3,Win32,60.01680471,,,,0,146,146,196,1,61,A1_B2,2.45,Noun,1,10.94,2.54,6,1.699,9,,,
,,,,,1,,,,,,,A2_B1,reviewer,,R_VUoLnXCpagrKhwZ,MainVerb,2022-06-13_13h32.14.005,SCT_verb,2021.2.3,Win32,60.01680471,,,,0,147,147,10,1,4,A1_B2,5.272727273,Noun,1,9.68,3.67,5.16,1.431,8,,,
,,,,k,1,1.1473,,,,,,A1_B2,make,k,R_VUoLnXCpagrKhwZ,MainVerb,2022-06-13_13h32.14.005,SCT_verb,2021.2.3,Win32,60.01680471,,,,0,148,148,201,1,62,A1_B1,2.391304348,Verb,1,4.68,2.67,6.09,4.85,4,,,
,,,,,1,,,,,,,A1_B1,array,,R_VUoLnXCpagrKhwZ,MainVerb,2022-06-13_13h32.14.005,SCT_verb,2021.2.3,Win32,60.01680471,,,,0,149,149,40,1,14,A1_B2,2.363636364,Noun,1,10.79,2.54,5.9,2.037,5,,,
,,,,,1,,,,,,,A2_B1,openness,,R_VUoLnXCpagrKhwZ,MainVerb,2022-06-13_13h32.14.005,SCT_verb,2021.2.3,Win32,60.01680471,,,,0,150,150,126,1,40,A1_B2,5.090909091,Noun,1,8.68,1.9,6.52,1.322,8,,,
,,,,,0,,,,,,,A1_B2,scramble,k,R_VUoLnXCpagrKhwZ,MainVerb,2022-06-13_13h32.14.005,SCT_verb,2021.2.3,Win32,60.01680471,,,,0,151,151,9,1,4,A1_B2,2.7,Verb,0.97,8.83,3.31,5.21,2.093,8,,,
,,,,,1,,,,,,,A2_B1,humanity,,R_VUoLnXCpagrKhwZ,MainVerb,2022-06-13_13h32.14.005,SCT_verb,2021.2.3,Win32,60.01680471,,,,0,152,152,146,1,45,A2_B2,6.19047619,Noun,1,9.28,2.36,6.78,2.696,8,,,
,,,,k,1,1.5349,,,,,,A2_B2,remarry,k,R_VUoLnXCpagrKhwZ,MainVerb,2022-06-13_13h32.14.005,SCT_verb,2021.2.3,Win32,60.01680471,,,,0,153,153,71,1,22,A2_B2,5.652173913,Verb,1,8.65,2.72,5.52,1.653,7,,,
,,,,k,1,1.0335,,,,,,A1_B2,maintain,k,R_VUoLnXCpagrKhwZ,MainVerb,2022-06-13_13h32.14.005,SCT_verb,2021.2.3,Win32,60.01680471,,,,0,154,154,181,1,57,A2_B1,2.684210526,Verb,1,9.94,2.32,6.29,2.821,8,,,
,,,,k,1,1.0366,,,,,,A1_B2,reconstruct,k,R_VUoLnXCpagrKhwZ,MainVerb,2022-06-13_13h32.14.005,SCT_verb,2021.2.3,Win32,60.01680471,,,,0,155,155,65,1,21,A2_B1,2.681818182,Verb,1,10.63,3.2,5.7,1.771,11,,,
,,,,,1,,,,,,,A1_B1,ingredient,,R_VUoLnXCpagrKhwZ,MainVerb,2022-06-13_13h32.14.005,SCT_verb,2021.2.3,Win32,60.01680471,,,,0,156,156,36,1,12,A1_B2,1.736842105,Noun,1,7.85,3.84,5.86,2.127,10,,,
,,,,,0,,,,,,,A1_B2,straddle,k,R_VUoLnXCpagrKhwZ,MainVerb,2022-06-13_13h32.14.005,SCT_verb,2021.2.3,Win32,60.01680471,,,,0,157,157,133,1,42,A1_B1,2.714285714,Verb,1,9.11,3.74,5.62,1.431,8,,,
,,,,,1,,,,,,,A2_B1,immigration,,R_VUoLnXCpagrKhwZ,MainVerb,2022-06-13_13h32.14.005,SCT_verb,2021.2.3,Win32,60.01680471,,,,0,158,158,174,1,54,A2_B1,6.090909091,Noun,0.98,12.63,3.03,4,2.111,11,,,
,,,,,0,,,,,,,A2_B2,brainwash,k,R_VUoLnXCpagrKhwZ,MainVerb,2022-06-13_13h32.14.005,SCT_verb,2021.2.3,Win32,60.01680471,,,,0,159,159,187,1,58,A1_B2,5.083333333,Verb,0.91,11.53,2.21,3.11,1.362,9,,,
,,,,,1,,,,,,,A2_B1,royalty,,R_VUoLnXCpagrKhwZ,MainVerb,2022-06-13_13h32.14.005,SCT_verb,2021.2.3,Win32,60.01680471,,,,0,160,160,250,1,4,A1_B1,5.136363636,Noun,1,8,3.11,5.52,2.303,7,,,
,,,,,1,,,,,,,A1_B1,agility,,R_VUoLnXCpagrKhwZ,MainVerb,2022-06-13_13h32.14.005,SCT_verb,2021.2.3,Win32,60.01680471,,,,0,161,161,48,1,17,A2_B1,2.869565217,Noun,1,10.06,2.38,6.55,1.38,7,,,
,,,,,1,,,,,,,A1_B1,distortion,,R_VUoLnXCpagrKhwZ,MainVerb,2022-06-13_13h32.14.005,SCT_verb,2021.2.3,Win32,60.01680471,,,,0,162,162,0,1,1,A2_B1,2.863636364,Noun,1,11.47,2.3,3.5,1.785,10,,,
,,,,,1,,,,,,,A1_B1,solution,,R_VUoLnXCpagrKhwZ,MainVerb,2022-06-13_13h32.14.005,SCT_verb,2021.2.3,Win32,60.01680471,,,,0,163,163,56,1,19,A1_B2,2.952380952,Noun,1,9,2.61,6.3,2.907,8,,,
,,,,k,1,0.6866,,,,,,A2_B2,pray,k,R_VUoLnXCpagrKhwZ,MainVerb,2022-06-13_13h32.14.005,SCT_verb,2021.2.3,Win32,60.01680471,,,,0,164,164,267,1,8,A1_B2,5.045454545,Verb,0.96,5.79,3.21,6.57,3.267,4,,,
,,,,k,1,2.098,,,,,,A1_B2,assess,k,R_VUoLnXCpagrKhwZ,MainVerb,2022-06-13_13h32.14.005,SCT_verb,2021.2.3,Win32,60.01680471,,,,0,165,165,17,1,6,A2_B2,2.652173913,Verb,1,11.37,2.26,5.84,1.924,6,,,
,,,,,0,,,,,,,A1_B2,bode,k,R_VUoLnXCpagrKhwZ,MainVerb,2022-06-13_13h32.14.005,SCT_verb,2021.2.3,Win32,60.01680471,,,,0,166,166,233,1,71,A1_B1,2.238095238,Verb,0.88,10.93,1.88,4.71,1.398,4,,,
,,,,,1,,,,,,,A2_B1,adulthood,,R_VUoLnXCpagrKhwZ,MainVerb,2022-06-13_13h32.14.005,SCT_verb,2021.2.3,Win32,60.01680471,,,,0,167,167,214,1,66,A1_B1,5.714285714,Noun,1,9.95,2.5,5.05,1.58,9,,,
,,,,k,1,1.084,,,,,,A1_B2,extend,k,R_VUoLnXCpagrKhwZ,MainVerb,2022-06-13_13h32.14.005,SCT_verb,2021.2.3,Win32,60.01680471,,,,0,168,168,169,1,53,A1_B1,2.909090909,Verb,1,9.89,2.93,5.86,2.516,6,,,
,,,,k,1,0.6674,,,,,,A2_B2,invite,k,R_VUoLnXCpagrKhwZ,MainVerb,2022-06-13_13h32.14.005,SCT_verb,2021.2.3,Win32,60.01680471,,,,0,169,169,95,1,30,A2_B2,6.090909091,Verb,0.96,6.79,3,5.68,3.179,6,,,
,,,,k,1,1.0006,,,,,,A2_B2,engage,k,R_VUoLnXCpagrKhwZ,MainVerb,2022-06-13_13h32.14.005,SCT_verb,2021.2.3,Win32,60.01680471,,,,0,170,170,43,1,14,A1_B2,5.1,Verb,1,10.42,2.07,6.6,2.498,6,,,
,,,,k,1,1.6005,,,,,,A1_B2,unload,k,R_VUoLnXCpagrKhwZ,MainVerb,2022-06-13_13h32.14.005,SCT_verb,2021.2.3,Win32,60.01680471,,,,0,171,171,25,1,8,A2_B1,2.454545455,Verb,1,7.86,3.21,5.21,2.373,6,,,
,,,,,1,,,,,,,A1_B1,stealth,,R_VUoLnXCpagrKhwZ,MainVerb,2022-06-13_13h32.14.005,SCT_verb,2021.2.3,Win32,60.01680471,,,,0,172,172,116,1,37,A2_B1,2.85,Noun,1,10.58,2.76,5.45,2.155,7,,,
,,,,,1,,,,,,,A2_B1,goodwill,,R_VUoLnXCpagrKhwZ,MainVerb,2022-06-13_13h32.14.005,SCT_verb,2021.2.3,Win32,60.01680471,,,,0,173,173,58,1,19,A1_B2,5.826086957,Noun,1,8.79,2.54,6.47,2.225,8,,,
,,,,k,1,0.6002,,,,,,A2_B2,confess,k,R_VUoLnXCpagrKhwZ,MainVerb,2022-06-13_13h32.14.005,SCT_verb,2021.2.3,Win32,60.01680471,,,,0,174,174,87,1,27,A2_B2,5.5,Verb,1,7.11,2.57,4.85,2.908,7,,,
,,,,k,1,0.6898,,,,,,A1_B2,replace,k,R_VUoLnXCpagrKhwZ,MainVerb,2022-06-13_13h32.14.005,SCT_verb,2021.2.3,Win32,60.01680471,,,,0,175,175,93,1,30,A2_B2,2.541666667,Verb,1,7.2,3,5.56,2.834,7,,,
,,,,,1,,,,,,,A2_B1,colony,,R_VUoLnXCpagrKhwZ,MainVerb,2022-06-13_13h32.14.005,SCT_verb,2021.2.3,Win32,60.01680471,,,,0,176,176,30,1,9,A1_B1,6.083333333,Noun,1,8.21,3.77,5.52,2.481,6,,,
,,,,,1,,,,,,,A1_B1,alignment,,R_VUoLnXCpagrKhwZ,MainVerb,2022-06-13_13h32.14.005,SCT_verb,2021.2.3,Win32,60.01680471,,,,0,177,177,64,1,21,A2_B1,2.826086957,Noun,1,11.76,3.26,6,1.833,9,,,
,,,,,0,,,,,,,A2_B2,conspire,k,R_VUoLnXCpagrKhwZ,MainVerb,2022-06-13_13h32.14.005,SCT_verb,2021.2.3,Win32,60.01680471,,,,0,178,178,15,1,5,A2_B1,5.5,Verb,0.9,11,2.67,3.9,1.505,8,,,
,,,,k,1,1.0347,,,,,,A1_B2,install,k,R_VUoLnXCpagrKhwZ,MainVerb,2022-06-13_13h32.14.005,SCT_verb,2021.2.3,Win32,60.01680471,,,,0,179,179,101,1,33,A1_B1,2.571428571,Verb,1,10.14,3.19,5.95,2.143,7,,,
,,,,,1,,,,,,,A2_B1,savior,,R_VUoLnXCpagrKhwZ,MainVerb,2022-06-13_13h32.14.005,SCT_verb,2021.2.3,Win32,60.01680471,,,,0,180,180,46,1,16,A1_B2,5.565217391,Noun,0.88,6.68,3.04,6.59,2.24,6,,,
,,,,,1,,,,,,,A1_B1,fortnight,,R_VUoLnXCpagrKhwZ,MainVerb,2022-06-13_13h32.14.005,SCT_verb,2021.2.3,Win32,60.01680471,,,,0,181,181,60,1,20,A2_B1,2.347826087,Noun,1,10.53,2.71,5.5,1.672,9,,,
,,,,k,1,0.9501,,,,,,A1_B2,terminate,k,R_VUoLnXCpagrKhwZ,MainVerb,2022-06-13_13h32.14.005,SCT_verb,2021.2.3,Win32,60.01680471,,,,0,182,182,1,1,1,A2_B1,2.80952381,Verb,1,11.21,2.29,3.05,2.149,9,,,
,,,,,1,,,,,,,A1_B1,jiffy,,R_VUoLnXCpagrKhwZ,MainVerb,2022-06-13_13h32.14.005,SCT_verb,2021.2.3,Win32,60.01680471,,,,0,183,183,160,1,50,A1_B2,2.722222222,Noun,1,9.33,2.33,6.09,1.909,5,,,
,,,,,1,,,,,,,A1_B1,compound,,R_VUoLnXCpagrKhwZ,MainVerb,2022-06-13_13h32.14.005,SCT_verb,2021.2.3,Win32,60.01680471,,,space,0,184,184,152,1,47,A2_B1,2.65,Noun,0.91,11.26,3.03,5.62,2.559,8,6.9832,,
,,,,k,1,0.7344,,,,,,A1_B2,absorb,k,R_VUoLnXCpagrKhwZ,MainVerb,2022-06-13_13h32.14.005,SCT_verb,2021.2.3,Win32,60.01680471,,,,0,185,185,29,1,9,A1_B1,2.166666667,Verb,1,8.83,3.11,5.5,2.009,6,,,
,,,,,1,,,,,,,A1_B1,precedent,,R_VUoLnXCpagrKhwZ,MainVerb,2022-06-13_13h32.14.005,SCT_verb,2021.2.3,Win32,60.01680471,,,,0,186,186,164,1,52,A1_B1,2.590909091,Noun,1,10.53,1.63,5.25,2.107,9,,,
,,,,,0,,,,,,,A2_B2,avenge,k,R_VUoLnXCpagrKhwZ,MainVerb,2022-06-13_13h32.14.005,SCT_verb,2021.2.3,Win32,60.01680471,,,,0,187,187,235,1,71,A1_B1,5.15,Verb,1,10.68,2.07,4.05,2.19,6,,,
,,,,k,1,0.9172,,,,,,A1_B2,contain,k,R_VUoLnXCpagrKhwZ,MainVerb,2022-06-13_13h32.14.005,SCT_verb,2021.2.3,Win32,60.01680471,,,,0,188,188,85,1,27,A2_B2,2.52,Verb,1,7.88,2.74,5,2.493,7,,,
,,,,,0,,,,,,,A1_B2,renew,k,R_VUoLnXCpagrKhwZ,MainVerb,2022-06-13_13h32.14.005,SCT_verb,2021.2.3,Win32,60.01680471,,,,0,189,189,161,1,50,A1_B2,2.958333333,Verb,1,10.06,2.07,6,2.049,5,,,
,,,,k,1,2.0169,,,,,,A2_B2,lend,k,R_VUoLnXCpagrKhwZ,MainVerb,2022-06-13_13h32.14.005,SCT_verb,2021.2.3,Win32,60.01680471,,,,0,190,190,27,1,8,A2_B1,5,Verb,1,8.45,3.07,4.95,2.775,4,,,
,,,,,1,,,,,,,A1_B1,excavation,,R_VUoLnXCpagrKhwZ,MainVerb,2022-06-13_13h32.14.005,SCT_verb,2021.2.3,Win32,60.01680471,,,,0,191,191,76,1,24,A1_B1,2.565217391,Noun,1,10.89,3.23,4.89,1.518,10,,,
,,,,,1,,,,,,,A1_B1,fluke,,R_VUoLnXCpagrKhwZ,MainVerb,2022-06-13_13h32.14.005,SCT_verb,2021.2.3,Win32,60.01680471,,,,0,192,192,232,1,71,A1_B1,2.526315789,Noun,1,10.1,2.34,4.3,1.954,5,,,
,,,,k,1,0.9003,,,,,,A2_B2,propose,k,R_VUoLnXCpagrKhwZ,MainVerb,2022-06-13_13h32.14.005,SCT_verb,2021.2.3,Win32,60.01680471,,,,0,193,193,219,1,67,A2_B1,5.541666667,Verb,1,9,2.19,6.26,2.822,7,,,
,,,,k,1,1.8179,,,,,,A1_B2,enter,k,R_VUoLnXCpagrKhwZ,MainVerb,2022-06-13_13h32.14.005,SCT_verb,2021.2.3,Win32,60.01680471,,,,0,194,194,265,1,8,A1_B2,2.739130435,Verb,1,5.67,3.12,6.09,3.181,5,,,
,,,,k,1,1.1845,,,,,,A2_B2,congratulate,k,R_VUoLnXCpagrKhwZ,MainVerb,2022-06-13_13h32.14.005,SCT_verb,2021.2.3,Win32,60.01680471,,,,0,195,195,191,1,59,A1_B1,5.76,Verb,1,9.57,3.04,6.33,2.555,12,,,
,,,,k,1,1.4173,,,,,,A2_B2,liberate,k,R_VUoLnXCpagrKhwZ,MainVerb,2022-06-13_13h32.14.005,SCT_verb,2021.2.3,Win32,60.01680471,,,,0,196,196,75,1,23,A1_B1,5.217391304,Verb,1,11.75,2.29,5.79,1.778,8,,,
,,,,,1,,,,,,,A2_B1,corruption,,R_VUoLnXCpagrKhwZ,MainVerb,2022-06-13_13h32.14.005,SCT_verb,2021.2.3,Win32,60.01680471,,,,0,197,197,2,1,1,A2_B1,5.5,Noun,1,11.17,2.39,3,2.34,10,,,
,,,,,1,,,,,,,A2_B1,exhibition,,R_VUoLnXCpagrKhwZ,MainVerb,2022-06-13_13h32.14.005,SCT_verb,2021.2.3,Win32,60.01680471,,,,0,198,198,66,1,21,A2_B1,5.272727273,Noun,1,11.25,3.52,5.53,2.318,10,,,
,,,,,1,,,,,,,A1_B1,gravity,,R_VUoLnXCpagrKhwZ,MainVerb,2022-06-13_13h32.14.005,SCT_verb,2021.2.3,Win32,60.01680471,,,,0,199,199,208,1,65,A2_B1,2.041666667,Noun,1,8.39,2.86,5.81,2.546,7,,,
,,,,k,1,1.2506,,,,,,A2_B2,attract,k,R_VUoLnXCpagrKhwZ,MainVerb,2022-06-13_13h32.14.005,SCT_verb,2021.2.3,Win32,60.01680471,,,,0,200,200,147,1,45,A2_B2,5.181818182,Verb,1,8.78,2.73,6.38,2.464,7,,,
,,,,,0,,,,,,,A2_B2,taunt,k,R_VUoLnXCpagrKhwZ,MainVerb,2022-06-13_13h32.14.005,SCT_verb,2021.2.3,Win32,60.01680471,,,,0,201,201,207,1,63,A2_B2,5.526315789,Verb,0.88,8.06,2.93,3.4,1.518,5,,,
,,,,k,1,1.2339,,,,,,A2_B2,preach,k,R_VUoLnXCpagrKhwZ,MainVerb,2022-06-13_13h32.14.005,SCT_verb,2021.2.3,Win32,60.01680471,,,,0,202,202,227,1,69,A1_B2,6.173913043,Verb,1,7.33,3.37,4.15,2.09,6,,,
,,,,,1,,,,,,,A2_B1,feedback,,R_VUoLnXCpagrKhwZ,MainVerb,2022-06-13_13h32.14.005,SCT_verb,2021.2.3,Win32,60.01680471,,,,0,203,203,62,1,20,A2_B1,5.545454545,Noun,1,10.7,2.48,5.91,2.149,8,,,
,,,,,1,,,,,,,A1_B1,genie,,R_VUoLnXCpagrKhwZ,MainVerb,2022-06-13_13h32.14.005,SCT_verb,2021.2.3,Win32,60.01680471,,,,0,204,204,44,1,16,A1_B2,2.545454545,Noun,0.99,6.67,3.25,6.1,2.253,5,,,
,,,,k,1,1.3339,,,,,,A1_B2,deduct,k,R_VUoLnXCpagrKhwZ,MainVerb,2022-06-13_13h32.14.005,SCT_verb,2021.2.3,Win32,60.01680471,,,,0,205,205,33,1,10,A2_B2,2.304347826,Verb,1,10.84,2.31,4.24,1.748,6,,,
,,,,k,1,0.8673,,,,,,A1_B2,dissolve,k,R_VUoLnXCpagrKhwZ,MainVerb,2022-06-13_13h32.14.005,SCT_verb,2021.2.3,Win32,60.01680471,,,,0,206,206,5,1,2,A2_B1,2.208333333,Verb,1,9.2,3.15,5.43,1.982,8,,,
,,,,,1,,,,,,,A2_B1,event,,R_VUoLnXCpagrKhwZ,MainVerb,2022-06-13_13h32.14.005,SCT_verb,2021.2.3,Win32,60.01680471,,,,0,207,207,138,1,43,A1_B2,5.130434783,Noun,1,7.81,2.69,6.21,3.129,5,,,
,,,,,1,,,,,,,A2_B1,ancestry,,R_VUoLnXCpagrKhwZ,MainVerb,2022-06-13_13h32.14.005,SCT_verb,2021.2.3,Win32,60.01680471,,,,0,208,208,102,1,33,A1_B1,5.142857143,Noun,1,10.11,2.83,6.29,1.398,8,,,
,,,,k,1,1.3002,,,,,,A2_B2,impregnate,k,R_VUoLnXCpagrKhwZ,MainVerb,2022-06-13_13h32.14.005,SCT_verb,2021.2.3,Win32,60.01680471,,,,0,209,209,175,1,54,A2_B1,5.44,Verb,1,12.95,3.29,4.5,1.362,10,,,
,,,,k,1,2.5168,,,,,,A2_B2,coexist,k,R_VUoLnXCpagrKhwZ,MainVerb,2022-06-13_13h32.14.005,SCT_verb,2021.2.3,Win32,60.01680471,,,,0,210,210,155,1,47,A2_B1,5.347826087,Verb,1,11.56,2.25,5.95,1.415,7,,,
,,,,k,1,1.5026,,,,,,A1_B2,calculate,k,R_VUoLnXCpagrKhwZ,MainVerb,2022-06-13_13h32.14.005,SCT_verb,2021.2.3,Win32,60.01680471,,,,0,211,211,97,1,32,A2_B1,2.368421053,Verb,1,9.26,2.74,4.89,2.029,9,,,
,,,,k,1,1.1153,,,,,,A1_B2,subside,k,R_VUoLnXCpagrKhwZ,MainVerb,2022-06-13_13h32.14.005,SCT_verb,2021.2.3,Win32,60.01680471,,,,0,212,212,257,1,6,A1_B1,2.590909091,Verb,1,10.44,2.26,5.42,1.322,7,,,
,,,,k,1,0.8499,,,,,,A2_B2,reunite,k,R_VUoLnXCpagrKhwZ,MainVerb,2022-06-13_13h32.14.005,SCT_verb,2021.2.3,Win32,60.01680471,,,,0,213,213,195,1,60,A2_B1,5.619047619,Verb,1,9.44,2.86,6.86,1.568,7,,,
,,,,,1,,,,,,,A2_B1,management,,R_VUoLnXCpagrKhwZ,MainVerb,2022-06-13_13h32.14.005,SCT_verb,2021.2.3,Win32,60.01680471,,,,0,214,214,98,1,32,A2_B1,6.181818182,Noun,1,10.05,2.72,4.95,2.775,10,,,
,,,,,1,,,,,,,A2_B1,career,,R_VUoLnXCpagrKhwZ,MainVerb,2022-06-13_13h32.14.005,SCT_verb,2021.2.3,Win32,60.01680471,,,,0,215,215,170,1,53,A1_B1,5.24,Noun,0.99,9.95,2.54,6.11,3.363,6,,,
,,,,,0,,,,,,,A1_B2,reinforce,k,R_VUoLnXCpagrKhwZ,MainVerb,2022-06-13_13h32.14.005,SCT_verb,2021.2.3,Win32,60.01680471,,,,0,216,216,21,1,7,A2_B1,2.904761905,Verb,1,10.2,2.32,5.53,1.69,9,,,
,,,,,1,,,,,,,A1_B1,delusion,,R_VUoLnXCpagrKhwZ,MainVerb,2022-06-13_13h32.14.005,SCT_verb,2021.2.3,Win32,60.01680471,,,,0,217,217,184,1,58,A1_B2,2.695652174,Noun,1,9.95,2.3,3.3,2.143,8,,,
,,,,k,1,1.0837,,,,,,A1_B2,visualize,k,R_VUoLnXCpagrKhwZ,MainVerb,2022-06-13_13h32.14.005,SCT_verb,2021.2.3,Win32,60.01680471,,,,0,218,218,49,1,17,A2_B1,2.458333333,Verb,1,9.88,2.45,6.58,1.949,9,,,
,,,,,0,,,,,,,A2_B2,bicker,k,R_VUoLnXCpagrKhwZ,MainVerb,2022-06-13_13h32.14.005,SCT_verb,2021.2.3,Win32,60.01680471,,,,0,219,219,151,1,46,A2_B2,5.545454545,Verb,1,8.94,3.15,2.81,1.415,6,,,
,,,,,1,,,,,,,A1_B1,potency,,R_VUoLnXCpagrKhwZ,MainVerb,2022-06-13_13h32.14.005,SCT_verb,2021.2.3,Win32,60.01680471,,,,0,220,220,16,1,6,A2_B2,2.565217391,Noun,1,12.89,2.32,5.84,1.398,7,,,
,,,,,1,,,,,,,A2_B1,diplomacy,,R_VUoLnXCpagrKhwZ,MainVerb,2022-06-13_13h32.14.005,SCT_verb,2021.2.3,Win32,60.01680471,,,,0,221,221,74,1,23,A1_B1,5.772727273,Noun,1,10.89,2.04,5.53,1.914,9,,,
,,,,,0,,,,,,,A1_B2,summarize,k,R_VUoLnXCpagrKhwZ,MainVerb,2022-06-13_13h32.14.005,SCT_verb,2021.2.3,Win32,60.01680471,,,,0,222,222,213,1,66,A1_B1,2.75,Verb,1,10.74,2.32,4.89,1.322,9,,,
,,,,k,1,1.9839,,,,,,A1_B2,cleanse,k,R_VUoLnXCpagrKhwZ,MainVerb,2022-06-13_13h32.14.005,SCT_verb,2021.2.3,Win32,60.01680471,,,,0,223,223,253,1,5,A2_B1,2.75,Verb,1,8.11,3.31,6.65,1.875,7,,,
,,,,k,1,2.3676,,,,,,A2_B2,accompany,k,R_VUoLnXCpagrKhwZ,MainVerb,2022-06-13_13h32.14.005,SCT_verb,2021.2.3,Win32,60.01680471,,,,0,224,224,67,1,21,A2_B1,5.782608696,Verb,1,10.75,3.07,5.47,2.386,9,,,
,,,,,1,,,,,,,A2_B1,attendance,,R_VUoLnXCpagrKhwZ,MainVerb,2022-06-13_13h32.14.005,SCT_verb,2021.2.3,Win32,60.01680471,,,,0,225,225,238,1,1,A2_B1,5.090909091,Noun,1,7.11,3.07,5.95,2.134,10,,,
,,,,,0,,,,,,,A1_B2,enhance,k,R_VUoLnXCpagrKhwZ,MainVerb,2022-06-13_13h32.14.005,SCT_verb,2021.2.3,Win32,60.01680471,,,,0,226,226,193,1,60,A2_B1,2.523809524,Verb,1,9.95,2.21,6.62,2.1,7,,,
,,,,k,1,1.0181,,,,,,A2_B2,connect,k,R_VUoLnXCpagrKhwZ,MainVerb,2022-06-13_13h32.14.005,SCT_verb,2021.2.3,Win32,60.01680471,,,,0,227,227,255,1,5,A2_B1,5.708333333,Verb,1,7.58,2.88,6.61,2.693,7,,,
,,,,,1,,,,,,,A1_B1,ventilation,,R_VUoLnXCpagrKhwZ,MainVerb,2022-06-13_13h32.14.005,SCT_verb,2021.2.3,Win32,60.01680471,,,,0,228,228,188,1,59,A1_B1,1.65,Noun,1,10.39,3.48,6.44,2.045,11,,,
,,,,,1,,,,,,,A2_B1,job,,R_VUoLnXCpagrKhwZ,MainVerb,2022-06-13_13h32.14.005,SCT_verb,2021.2.3,Win32,60.01680471,,,,0,229,229,202,1,62,A1_B1,5.695652174,Noun,1,5.39,3.19,5.64,4.324,3,,,
,,,,,1,,,,,,,A2_B1,history,,R_VUoLnXCpagrKhwZ,MainVerb,2022-06-13_13h32.14.005,SCT_verb,2021.2.3,Win32,60.01680471,,,,0,230,230,94,1,30,A2_B2,5.416666667,Noun,1,6.42,2.96,6,3.631,7,,,
,,,,,0,,,,,,,A2_B2,commandeer,k,R_VUoLnXCpagrKhwZ,MainVerb,2022-06-13_13h32.14.005,SCT_verb,2021.2.3,Win32,60.01680471,,,,0,231,231,79,1,24,A1_B1,5.55,Verb,1,11.88,3.7,4.43,1.462,10,,,
,,,,,0,,,,,,,A1_B2,arise,k,R_VUoLnXCpagrKhwZ,MainVerb,2022-06-13_13h32.14.005,SCT_verb,2021.2.3,Win32,60.01680471,,,,0,232,232,45,1,16,A1_B2,2.619047619,Verb,1,6.89,3.17,6.17,2.182,5,,,
,,,,,1,,,,,,,A2_B1,labor,,R_VUoLnXCpagrKhwZ,MainVerb,2022-06-13_13h32.14.005,SCT_verb,2021.2.3,Win32,60.01680471,,,,0,233,233,26,1,8,A2_B1,5.523809524,Noun,0.97,8.28,3.08,4.74,2.794,5,,,
,,,,,1,,,,,,,A1_B1,bleeder,,R_VUoLnXCpagrKhwZ,MainVerb,2022-06-13_13h32.14.005,SCT_verb,2021.2.3,Win32,60.01680471,,,,0,234,234,148,1,46,A2_B2,2.8,Noun,1,9.76,3.5,3.29,1.785,7,,,
,,,,k,1,0.9836,,,,,,A2_B2,reproduce,k,R_VUoLnXCpagrKhwZ,MainVerb,2022-06-13_13h32.14.005,SCT_verb,2021.2.3,Win32,60.01680471,,,,0,235,235,135,1,42,A1_B1,5.772727273,Verb,1,9.89,3.48,5.63,1.903,9,,,
,,,,,1,,,,,,,A2_B1,hierarchy,,R_VUoLnXCpagrKhwZ,MainVerb,2022-06-13_13h32.14.005,SCT_verb,2021.2.3,Win32,60.01680471,,,,0,236,236,110,1,35,A1_B2,6.208333333,Noun,1,11.11,2.59,4.95,1.518,9,,,
,,,,,1,,,,,,,A2_B1,artistry,,R_VUoLnXCpagrKhwZ,MainVerb,2022-06-13_13h32.14.005,SCT_verb,2021.2.3,Win32,60.01680471,,,,0,237,237,50,1,17,A2_B1,5.181818182,Noun,1,10.58,2,6.91,1.398,8,,,
,,,,k,1,1.5336,,,,,,A2_B2,banish,k,R_VUoLnXCpagrKhwZ,MainVerb,2022-06-13_13h32.14.005,SCT_verb,2021.2.3,Win32,60.01680471,,,,0,238,238,35,1,10,A2_B2,5.136363636,Verb,1,9.89,2.41,3.85,1.845,6,,,
,,,,,1,,,,,,,A2_B1,stardom,,R_VUoLnXCpagrKhwZ,MainVerb,2022-06-13_13h32.14.005,SCT_verb,2021.2.3,Win32,60.01680471,,,,0,239,239,118,1,37,A2_B1,5.238095238,Noun,1,10.06,2.26,5.85,1.505,7,,,
,,,,k,0,0.9336,,,,,,A2_B1,critique,,R_VUoLnXCpagrKhwZ,MainVerb,2022-06-13_13h32.14.005,SCT_verb,2021.2.3,Win32,60.01680471,,,,0,240,240,242,1,2,A2_B2,5.304347826,Noun,1,11.83,2.55,4.8,1.415,8,,,
,,,,k,1,1.2318,,,,,,A1_B2,decompose,k,R_VUoLnXCpagrKhwZ,MainVerb,2022-06-13_13h32.14.005,SCT_verb,2021.2.3,Win32,60.01680471,,,,0,241,241,113,1,36,A1_B2,1.826086957,Verb,1,10.48,3,2.42,1.398,9,,,
,,,,k,1,1.1338,,,,,,A2_B2,hypnotize,k,R_VUoLnXCpagrKhwZ,MainVerb,2022-06-13_13h32.14.005,SCT_verb,2021.2.3,Win32,60.01680471,,,,0,242,242,7,1,2,A2_B1,5.095238095,Verb,1,9.89,2.48,5.7,1.505,9,,,
,,,,k,1,1.2503,,,,,,A2_B2,befriend,k,R_VUoLnXCpagrKhwZ,MainVerb,2022-06-13_13h32.14.005,SCT_verb,2021.2.3,Win32,60.01680471,,,,0,243,243,127,1,40,A1_B2,6.608695652,Verb,1,8.5,2.36,7.14,1.362,8,,,
,,,,,0,,,,,,,A1_B2,radiate,k,R_VUoLnXCpagrKhwZ,MainVerb,2022-06-13_13h32.14.005,SCT_verb,2021.2.3,Win32,60.01680471,,,,0,244,244,177,1,55,A2_B1,2.619047619,Verb,0.89,12.5,2.93,6.9,1.447,7,,,
,,,,,1,,,,,,,A1_B1,volume,,R_VUoLnXCpagrKhwZ,MainVerb,2022-06-13_13h32.14.005,SCT_verb,2021.2.3,Win32,60.01680471,,,,0,245,245,84,1,27,A2_B2,2.772727273,Noun,1,6.35,3.07,5.25,2.55,6,,,
,,,,,1,,,,,,,A1_B1,physics,,R_VUoLnXCpagrKhwZ,MainVerb,2022-06-13_13h32.14.005,SCT_verb,2021.2.3,Win32,60.01680471,,,,0,246,246,140,1,44,A2_B1,1.913043478,Noun,1,11.68,3.07,5.53,2.684,7,,,
,,,,,1,,,,,,,A1_B1,migraine,,R_VUoLnXCpagrKhwZ,MainVerb,2022-06-13_13h32.14.005,SCT_verb,2021.2.3,Win32,60.01680471,,,,0,247,247,112,1,36,A1_B2,2.956521739,Noun,0.93,10,3.2,2.68,1.982,8,,,
,,,,k,1,1.6673,,,,,,A1_B2,soften,k,R_VUoLnXCpagrKhwZ,MainVerb,2022-06-13_13h32.14.005,SCT_verb,2021.2.3,Win32,60.01680471,,,,0,248,248,221,1,68,A2_B2,2.583333333,Verb,1,7.37,2.57,6.57,1.887,6,,,
,,,,k,1,1.619,,,,,,A1_B2,simplify,k,R_VUoLnXCpagrKhwZ,MainVerb,2022-06-13_13h32.14.005,SCT_verb,2021.2.3,Win32,60.01680471,,,,0,249,249,209,1,65,A2_B1,2.761904762,Verb,1,8.53,1.89,6.35,1.672,8,,,
,,,,,1,,,,,,,A2_B1,mankind,,R_VUoLnXCpagrKhwZ,MainVerb,2022-06-13_13h32.14.005,SCT_verb,2021.2.3,Win32,60.01680471,,,,0,250,250,222,1,68,A2_B2,6.5,Noun,1,8.89,2.97,6.59,2.651,7,,,
,,,,,1,,,,,,,A1_B1,onset,,R_VUoLnXCpagrKhwZ,MainVerb,2022-06-13_13h32.14.005,SCT_verb,2021.2.3,Win32,60.01680471,,,,0,251,251,32,1,10,A2_B2,2.304347826,Noun,1,10.72,2.14,4.35,1.643,5,,,
,,,,k,1,1.0675,,,,,,A2_B2,tell,k,R_VUoLnXCpagrKhwZ,MainVerb,2022-06-13_13h32.14.005,SCT_verb,2021.2.3,Win32,60.01680471,,,,0,252,252,203,1,62,A1_B1,5.238095238,Verb,1,4.26,2.9,5.27,4.944,4,,,
,,,,k,1,1.1339,,,,,,A2_B2,authorize,k,R_VUoLnXCpagrKhwZ,MainVerb,2022-06-13_13h32.14.005,SCT_verb,2021.2.3,Win32,60.01680471,,,,0,253,253,23,1,7,A2_B1,5.086956522,Verb,1,9.84,2.22,5.37,2.025,9,,,
,,,,k,1,1.0005,,,,,,A1_B2,obstruct,k,R_VUoLnXCpagrKhwZ,MainVerb,2022-06-13_13h32.14.005,SCT_verb,2021.2.3,Win32,60.01680471,,,,0,254,254,185,1,58,A1_B2,2.45,Verb,1,10.94,2.46,3.61,1.491,8,,,
,,,,k,1,0.8175,,,,,,A1_B2,conclude,k,R_VUoLnXCpagrKhwZ,MainVerb,2022-06-13_13h32.14.005,SCT_verb,2021.2.3,Win32,60.01680471,,,,0,255,255,165,1,52,A1_B1,2.681818182,Verb,1,10.48,1.78,4.81,2.107,8,,,
,,,,k,1,0.7673,,,,,,A2_B2,assist,k,R_VUoLnXCpagrKhwZ,MainVerb,2022-06-13_13h32.14.005,SCT_verb,2021.2.3,Win32,60.01680471,,,,0,256,256,139,1,43,A1_B2,5.958333333,Verb,0.93,8.75,2.52,5.95,2.603,6,,,
,,,,,1,,,,,,,A1_B1,fraction,,R_VUoLnXCpagrKhwZ,MainVerb,2022-06-13_13h32.14.005,SCT_verb,2021.2.3,Win32,60.01680471,,,,0,257,257,88,1,28,A2_B2,1.916666667,Noun,1,10.06,3.1,5.21,2.021,8,,,
,,,,k,1,1.0334,,,,,,A2_B2,tolerate,k,R_VUoLnXCpagrKhwZ,MainVerb,2022-06-13_13h32.14.005,SCT_verb,2021.2.3,Win32,60.01680471,,,,0,258,258,247,1,3,A2_B1,5.761904762,Verb,1,10.45,1.78,6.19,2.55,8,,,
,,,,k,1,0.8002,,,,,,A1_B2,finalize,k,R_VUoLnXCpagrKhwZ,MainVerb,2022-06-13_13h32.14.005,SCT_verb,2021.2.3,Win32,60.01680471,,,,0,259,259,197,1,61,A1_B2,2.545454545,Verb,1,10.3,2.14,5.6,1.431,8,,,
,,,,,0,,,,,,,A1_B2,refuel,k,R_VUoLnXCpagrKhwZ,MainVerb,2022-06-13_13h32.14.005,SCT_verb,2021.2.3,Win32,60.01680471,,,,0,260,260,81,1,26,A1_B2,1.954545455,Verb,1,10.22,3.53,5.5,1.643,6,,,
,,,,k,1,0.8357,,,,,,A1_B2,deteriorate,k,R_VUoLnXCpagrKhwZ,MainVerb,2022-06-13_13h32.14.005,SCT_verb,2021.2.3,Win32,60.01680471,,,,0,261,261,173,1,54,A2_B1,2.428571429,Verb,1,11.78,3,3.64,1.447,11,,,
,,,,,0,,,,,,,A1_B2,freshen,k,R_VUoLnXCpagrKhwZ,MainVerb,2022-06-13_13h32.14.005,SCT_verb,2021.2.3,Win32,60.01680471,,,,0,262,262,57,1,19,A1_B2,2.333333333,Verb,1,8.84,2.17,6.56,2.121,7,,,
,,,,,1,,,,,,,A1_B1,standstill,,R_VUoLnXCpagrKhwZ,MainVerb,2022-06-13_13h32.14.005,SCT_verb,2021.2.3,Win32,60.01680471,,,,0,263,263,212,1,66,A1_B1,2.863636364,Noun,1,10,2.39,4.74,1.431,10,,,
,,,,k,1,0.7835,,,,,,A2_B2,reconcile,k,R_VUoLnXCpagrKhwZ,MainVerb,2022-06-13_13h32.14.005,SCT_verb,2021.2.3,Win32,60.01680471,,,,0,264,264,51,1,17,A2_B1,5.55,Verb,1,10.47,1.79,6.84,1.771,9,,,
,,,,k,1,1.3193,,,,,,A2_B2,compete,k,R_VUoLnXCpagrKhwZ,MainVerb,2022-06-13_13h32.14.005,SCT_verb,2021.2.3,Win32,60.01680471,,,,0,265,265,251,1,4,A1_B1,5.428571429,Verb,1,6.94,2.57,5.35,2.636,7,,,
,,,,,1,,,,,,,A1_B1,category,,R_VUoLnXCpagrKhwZ,MainVerb,2022-06-13_13h32.14.005,SCT_verb,2021.2.3,Win32,60.01680471,,,,0,266,266,68,1,22,A2_B2,2.952380952,Noun,1,8.15,2.82,5.05,2.318,8,,,
,,,,,1,,,,,,,A2_B1,temptress,,R_VUoLnXCpagrKhwZ,MainVerb,2022-06-13_13h32.14.005,SCT_verb,2021.2.3,Win32,60.01680471,,,,0,267,267,122,1,39,A2_B2,5.086956522,Noun,0.91,12.2,3.08,4.68,1.38,9,,,
,,,,,,,,,,,,,,,R_VUoLnXCpagrKhwZ,MainVerb,2022-06-13_13h32.14.005,SCT_verb,2021.2.3,Win32,60.01680471,,,,,,,,,,,,,,,,,,,,space,4.9666
